user_id,accuracy,resptime,session,trial,condition_text,threshold_text,duration_text,q1,q2,q3,q4,q5,q6,trial_id
1,1,1.2592589855194092,0.0,1.0,with distraction,none,long,4.0,4.0,1.0,1.0,1.0,1.0,1
1,1,1.1804258823394775,0.0,2.0,with distraction,none,long,4.0,4.0,1.0,1.0,1.0,1.0,2
1,1,1.3489720821380615,0.0,3.0,with distraction,none,long,4.0,4.0,1.0,1.0,1.0,1.0,3
1,1,1.3726768493652344,0.0,4.0,with distraction,none,long,4.0,4.0,1.0,1.0,1.0,1.0,4
1,1,1.3335230350494385,0.0,5.0,with distraction,none,long,4.0,4.0,1.0,1.0,1.0,1.0,5
1,1,2.4178781509399414,0.0,6.0,with distraction,none,long,4.0,4.0,1.0,1.0,1.0,1.0,6
1,1,1.2119202613830566,0.0,7.0,with distraction,none,long,4.0,4.0,1.0,1.0,1.0,1.0,7
1,1,1.0675480365753174,0.0,8.0,with distraction,none,long,4.0,4.0,1.0,1.0,1.0,1.0,8
1,1,1.2098219394683838,0.0,9.0,with distraction,none,long,4.0,4.0,1.0,1.0,1.0,1.0,9
1,1,1.6006510257720947,0.0,10.0,with distraction,none,long,4.0,4.0,1.0,1.0,1.0,1.0,10
1,1,1.1002671718597412,1.0,1.0,with distraction,none,short,4.0,4.0,1.0,1.0,1.0,1.0,11
1,1,1.1106770038604736,1.0,2.0,with distraction,none,short,4.0,4.0,1.0,1.0,1.0,1.0,12
1,1,0.9901549816131592,1.0,4.0,with distraction,none,short,4.0,4.0,1.0,1.0,1.0,1.0,13
1,1,1.1871259212493896,1.0,5.0,with distraction,none,short,4.0,4.0,1.0,1.0,1.0,1.0,14
1,1,0.9481351375579834,1.0,7.0,with distraction,none,short,4.0,4.0,1.0,1.0,1.0,1.0,15
1,1,1.0769741535186768,1.0,9.0,with distraction,none,short,4.0,4.0,1.0,1.0,1.0,1.0,16
1,1,0.9743800163269044,1.0,10.0,with distraction,none,short,4.0,4.0,1.0,1.0,1.0,1.0,17
1,1,1.866293907165528,2.0,1.0,with distraction,static,short,2.0,3.0,4.0,1.0,4.0,2.0,18
1,1,0.9430789947509766,2.0,2.0,with distraction,static,short,2.0,3.0,4.0,1.0,4.0,2.0,19
1,1,1.0689809322357178,2.0,3.0,with distraction,static,short,2.0,3.0,4.0,1.0,4.0,2.0,20
1,1,1.19520902633667,2.0,4.0,with distraction,static,short,2.0,3.0,4.0,1.0,4.0,2.0,21
1,1,1.0686829090118408,2.0,5.0,with distraction,static,short,2.0,3.0,4.0,1.0,4.0,2.0,22
1,1,0.8307218551635742,2.0,6.0,with distraction,static,short,2.0,3.0,4.0,1.0,4.0,2.0,23
1,1,0.9362297058105468,2.0,7.0,with distraction,static,short,2.0,3.0,4.0,1.0,4.0,2.0,24
1,1,1.4997870922088623,2.0,8.0,with distraction,static,short,2.0,3.0,4.0,1.0,4.0,2.0,25
1,1,1.092736005783081,2.0,9.0,with distraction,static,short,2.0,3.0,4.0,1.0,4.0,2.0,26
1,1,0.9389941692352296,2.0,10.0,with distraction,static,short,2.0,3.0,4.0,1.0,4.0,2.0,27
1,1,0.9060781002044678,3.0,1.0,no distraction,static,short,2.0,4.0,5.0,1.0,5.0,3.0,28
1,1,0.9812948703765868,3.0,2.0,no distraction,static,short,2.0,4.0,5.0,1.0,5.0,3.0,29
1,1,0.6684980392456055,3.0,3.0,no distraction,static,short,2.0,4.0,5.0,1.0,5.0,3.0,30
1,1,1.0427970886230469,3.0,4.0,no distraction,static,short,2.0,4.0,5.0,1.0,5.0,3.0,31
1,1,0.9427671432495116,3.0,5.0,no distraction,static,short,2.0,4.0,5.0,1.0,5.0,3.0,32
1,1,0.76816725730896,3.0,6.0,no distraction,static,short,2.0,4.0,5.0,1.0,5.0,3.0,33
1,1,0.6870670318603516,3.0,7.0,no distraction,static,short,2.0,4.0,5.0,1.0,5.0,3.0,34
1,0,0.4514548778533935,3.0,8.0,no distraction,static,short,2.0,4.0,5.0,1.0,5.0,3.0,35
1,1,0.7625091075897217,3.0,9.0,no distraction,static,short,2.0,4.0,5.0,1.0,5.0,3.0,36
1,1,0.6725261211395264,3.0,10.0,no distraction,static,short,2.0,4.0,5.0,1.0,5.0,3.0,37
1,1,0.7733230590820312,4.0,1.0,no distraction,static,long,3.0,3.0,2.0,1.0,3.0,6.0,38
1,1,0.8541498184204102,4.0,2.0,no distraction,static,long,3.0,3.0,2.0,1.0,3.0,6.0,39
1,1,0.8412868976593018,4.0,3.0,no distraction,static,long,3.0,3.0,2.0,1.0,3.0,6.0,40
1,1,0.9705812931060792,4.0,4.0,no distraction,static,long,3.0,3.0,2.0,1.0,3.0,6.0,41
1,1,0.8423240184783936,4.0,5.0,no distraction,static,long,3.0,3.0,2.0,1.0,3.0,6.0,42
1,1,0.8367528915405273,4.0,6.0,no distraction,static,long,3.0,3.0,2.0,1.0,3.0,6.0,43
1,1,0.8620650768280029,4.0,7.0,no distraction,static,long,3.0,3.0,2.0,1.0,3.0,6.0,44
1,1,0.8728799819946289,4.0,8.0,no distraction,static,long,3.0,3.0,2.0,1.0,3.0,6.0,45
1,1,0.8052370548248291,4.0,9.0,no distraction,static,long,3.0,3.0,2.0,1.0,3.0,6.0,46
1,1,2.268744945526123,5.0,1.0,with distraction,filtered,short,7.0,7.0,1.0,7.0,7.0,6.0,47
1,1,0.8030352592468262,5.0,2.0,with distraction,filtered,short,7.0,7.0,1.0,7.0,7.0,6.0,48
1,1,0.9160280227661132,5.0,3.0,with distraction,filtered,short,7.0,7.0,1.0,7.0,7.0,6.0,49
1,1,0.8410677909851074,5.0,5.0,with distraction,filtered,short,7.0,7.0,1.0,7.0,7.0,6.0,50
1,1,1.0775721073150637,5.0,6.0,with distraction,filtered,short,7.0,7.0,1.0,7.0,7.0,6.0,51
1,1,1.5993127822875977,5.0,7.0,with distraction,filtered,short,7.0,7.0,1.0,7.0,7.0,6.0,52
1,1,1.0966639518737793,5.0,8.0,with distraction,filtered,short,7.0,7.0,1.0,7.0,7.0,6.0,53
1,1,1.7400059700012207,5.0,9.0,with distraction,filtered,short,7.0,7.0,1.0,7.0,7.0,6.0,54
1,1,1.3498330116271973,5.0,10.0,with distraction,filtered,short,7.0,7.0,1.0,7.0,7.0,6.0,55
1,1,0.8813729286193848,6.0,1.0,no distraction,filtered,long,6.0,6.0,1.0,6.0,7.0,5.0,56
1,1,0.9291410446166992,6.0,2.0,no distraction,filtered,long,6.0,6.0,1.0,6.0,7.0,5.0,57
1,1,0.8854410648345947,6.0,3.0,no distraction,filtered,long,6.0,6.0,1.0,6.0,7.0,5.0,58
1,1,0.8394069671630859,6.0,4.0,no distraction,filtered,long,6.0,6.0,1.0,6.0,7.0,5.0,59
1,1,0.7737491130828857,6.0,5.0,no distraction,filtered,long,6.0,6.0,1.0,6.0,7.0,5.0,60
1,1,1.358425855636597,6.0,6.0,no distraction,filtered,long,6.0,6.0,1.0,6.0,7.0,5.0,61
1,1,0.8206479549407959,6.0,7.0,no distraction,filtered,long,6.0,6.0,1.0,6.0,7.0,5.0,62
1,1,0.784883975982666,6.0,8.0,no distraction,filtered,long,6.0,6.0,1.0,6.0,7.0,5.0,63
1,1,0.8254599571228027,6.0,9.0,no distraction,filtered,long,6.0,6.0,1.0,6.0,7.0,5.0,64
1,1,0.8342950344085693,6.0,10.0,no distraction,filtered,long,6.0,6.0,1.0,6.0,7.0,5.0,65
1,1,0.9640378952026368,7.0,1.0,with distraction,static,long,6.0,6.0,1.0,6.0,6.0,5.0,66
1,1,1.3233749866485596,7.0,2.0,with distraction,static,long,6.0,6.0,1.0,6.0,6.0,5.0,67
1,1,0.9339897632598876,7.0,3.0,with distraction,static,long,6.0,6.0,1.0,6.0,6.0,5.0,68
1,1,0.9756639003753662,7.0,4.0,with distraction,static,long,6.0,6.0,1.0,6.0,6.0,5.0,69
1,1,1.254910945892334,7.0,5.0,with distraction,static,long,6.0,6.0,1.0,6.0,6.0,5.0,70
1,1,1.107213258743286,7.0,6.0,with distraction,static,long,6.0,6.0,1.0,6.0,6.0,5.0,71
1,1,1.354753017425537,7.0,7.0,with distraction,static,long,6.0,6.0,1.0,6.0,6.0,5.0,72
1,1,2.042076826095581,7.0,8.0,with distraction,static,long,6.0,6.0,1.0,6.0,6.0,5.0,73
1,1,0.951667070388794,7.0,9.0,with distraction,static,long,6.0,6.0,1.0,6.0,6.0,5.0,74
1,1,0.8445429801940918,7.0,10.0,with distraction,static,long,6.0,6.0,1.0,6.0,6.0,5.0,75
1,1,0.8860406875610352,8.0,1.0,no distraction,none,short,4.0,4.0,1.0,1.0,1.0,1.0,76
1,1,0.7690119743347168,8.0,2.0,no distraction,none,short,4.0,4.0,1.0,1.0,1.0,1.0,77
1,1,0.697124719619751,8.0,3.0,no distraction,none,short,4.0,4.0,1.0,1.0,1.0,1.0,78
1,1,0.7520430088043213,8.0,4.0,no distraction,none,short,4.0,4.0,1.0,1.0,1.0,1.0,79
1,1,1.5909810066223145,8.0,5.0,no distraction,none,short,4.0,4.0,1.0,1.0,1.0,1.0,80
1,1,0.7489199638366699,8.0,6.0,no distraction,none,short,4.0,4.0,1.0,1.0,1.0,1.0,81
1,1,0.9755258560180664,8.0,7.0,no distraction,none,short,4.0,4.0,1.0,1.0,1.0,1.0,82
1,1,0.8054177761077881,8.0,8.0,no distraction,none,short,4.0,4.0,1.0,1.0,1.0,1.0,83
1,1,1.0985920429229736,8.0,9.0,no distraction,none,short,4.0,4.0,1.0,1.0,1.0,1.0,84
1,1,0.7769112586975098,8.0,10.0,no distraction,none,short,4.0,4.0,1.0,1.0,1.0,1.0,85
1,1,1.205108880996704,9.0,1.0,with distraction,filtered,long,6.0,6.0,1.0,6.0,6.0,6.0,86
1,1,0.9137449264526368,9.0,2.0,with distraction,filtered,long,6.0,6.0,1.0,6.0,6.0,6.0,87
1,1,1.0427250862121582,9.0,3.0,with distraction,filtered,long,6.0,6.0,1.0,6.0,6.0,6.0,88
1,1,0.9583408832550048,9.0,4.0,with distraction,filtered,long,6.0,6.0,1.0,6.0,6.0,6.0,89
1,1,1.1055829524993896,9.0,5.0,with distraction,filtered,long,6.0,6.0,1.0,6.0,6.0,6.0,90
1,1,1.1148552894592283,9.0,6.0,with distraction,filtered,long,6.0,6.0,1.0,6.0,6.0,6.0,91
1,1,0.9551670551300048,9.0,7.0,with distraction,filtered,long,6.0,6.0,1.0,6.0,6.0,6.0,92
1,1,0.8447840213775635,9.0,8.0,with distraction,filtered,long,6.0,6.0,1.0,6.0,6.0,6.0,93
1,1,1.1882517337799072,9.0,9.0,with distraction,filtered,long,6.0,6.0,1.0,6.0,6.0,6.0,94
1,1,1.1886041164398191,9.0,10.0,with distraction,filtered,long,6.0,6.0,1.0,6.0,6.0,6.0,95
1,1,0.8609838485717773,10.0,1.0,no distraction,filtered,short,7.0,7.0,1.0,7.0,6.0,7.0,96
1,1,0.6775908470153809,10.0,2.0,no distraction,filtered,short,7.0,7.0,1.0,7.0,6.0,7.0,97
1,1,0.489617109298706,10.0,3.0,no distraction,filtered,short,7.0,7.0,1.0,7.0,6.0,7.0,98
1,1,0.7106156349182129,10.0,4.0,no distraction,filtered,short,7.0,7.0,1.0,7.0,6.0,7.0,99
1,1,0.7293901443481445,10.0,5.0,no distraction,filtered,short,7.0,7.0,1.0,7.0,6.0,7.0,100
1,1,0.4203400611877441,10.0,6.0,no distraction,filtered,short,7.0,7.0,1.0,7.0,6.0,7.0,101
1,1,0.8530571460723877,10.0,7.0,no distraction,filtered,short,7.0,7.0,1.0,7.0,6.0,7.0,102
1,1,1.9913430213928225,10.0,8.0,no distraction,filtered,short,7.0,7.0,1.0,7.0,6.0,7.0,103
1,1,0.6116139888763428,10.0,9.0,no distraction,filtered,short,7.0,7.0,1.0,7.0,6.0,7.0,104
1,1,0.512274980545044,10.0,10.0,no distraction,filtered,short,7.0,7.0,1.0,7.0,6.0,7.0,105
1,1,0.9720029830932616,11.0,1.0,no distraction,none,long,1.0,1.0,1.0,1.0,1.0,1.0,106
1,1,1.1140711307525637,11.0,2.0,no distraction,none,long,1.0,1.0,1.0,1.0,1.0,1.0,107
1,1,1.2817058563232422,11.0,3.0,no distraction,none,long,1.0,1.0,1.0,1.0,1.0,1.0,108
1,1,3.3808839321136475,11.0,4.0,no distraction,none,long,1.0,1.0,1.0,1.0,1.0,1.0,109
1,1,0.8571639060974121,11.0,5.0,no distraction,none,long,1.0,1.0,1.0,1.0,1.0,1.0,110
1,1,0.8235208988189697,11.0,6.0,no distraction,none,long,1.0,1.0,1.0,1.0,1.0,1.0,111
1,1,0.8349452018737793,11.0,7.0,no distraction,none,long,1.0,1.0,1.0,1.0,1.0,1.0,112
1,1,0.8277862071990967,11.0,8.0,no distraction,none,long,1.0,1.0,1.0,1.0,1.0,1.0,113
1,1,1.394848108291626,11.0,9.0,no distraction,none,long,1.0,1.0,1.0,1.0,1.0,1.0,114
1,1,1.664668083190918,11.0,10.0,no distraction,none,long,1.0,1.0,1.0,1.0,1.0,1.0,115
14,1,0.5975611209869385,0.0,1.0,no distraction,static,long,4.0,4.0,1.0,1.0,1.0,2.0,1
14,1,0.5002548694610596,0.0,2.0,no distraction,static,long,4.0,4.0,1.0,1.0,1.0,2.0,2
14,0,0.5803208351135254,0.0,3.0,no distraction,static,long,4.0,4.0,1.0,1.0,1.0,2.0,3
14,1,0.6704080104827881,0.0,4.0,no distraction,static,long,4.0,4.0,1.0,1.0,1.0,2.0,4
14,1,0.8068370819091797,0.0,5.0,no distraction,static,long,4.0,4.0,1.0,1.0,1.0,2.0,5
14,1,0.6719138622283936,0.0,6.0,no distraction,static,long,4.0,4.0,1.0,1.0,1.0,2.0,6
14,1,1.504249095916748,0.0,7.0,no distraction,static,long,4.0,4.0,1.0,1.0,1.0,2.0,7
14,1,0.8085799217224121,0.0,8.0,no distraction,static,long,4.0,4.0,1.0,1.0,1.0,2.0,8
14,1,0.7193398475646973,0.0,9.0,no distraction,static,long,4.0,4.0,1.0,1.0,1.0,2.0,9
14,1,0.8557450771331787,0.0,10.0,no distraction,static,long,4.0,4.0,1.0,1.0,1.0,2.0,10
14,1,0.5068848133087158,1.0,1.0,no distraction,none,long,4.0,4.0,1.0,1.0,1.0,1.0,11
14,1,1.0855200290679932,1.0,2.0,no distraction,none,long,4.0,4.0,1.0,1.0,1.0,1.0,12
14,1,0.7413430213928223,1.0,3.0,no distraction,none,long,4.0,4.0,1.0,1.0,1.0,1.0,13
14,1,0.747593879699707,1.0,4.0,no distraction,none,long,4.0,4.0,1.0,1.0,1.0,1.0,14
14,1,0.7935371398925781,1.0,5.0,no distraction,none,long,4.0,4.0,1.0,1.0,1.0,1.0,15
14,1,0.8069360256195068,1.0,6.0,no distraction,none,long,4.0,4.0,1.0,1.0,1.0,1.0,16
14,1,0.654437780380249,1.0,7.0,no distraction,none,long,4.0,4.0,1.0,1.0,1.0,1.0,17
14,0,0.6477060317993164,1.0,8.0,no distraction,none,long,4.0,4.0,1.0,1.0,1.0,1.0,18
14,1,1.1504740715026855,1.0,9.0,no distraction,none,long,4.0,4.0,1.0,1.0,1.0,1.0,19
14,1,0.8467550277709961,1.0,10.0,no distraction,none,long,4.0,4.0,1.0,1.0,1.0,1.0,20
14,1,0.7328600883483887,2.0,1.0,no distraction,none,short,4.0,4.0,1.0,1.0,1.0,1.0,21
14,1,0.694936990737915,2.0,3.0,no distraction,none,short,4.0,4.0,1.0,1.0,1.0,1.0,22
14,1,0.6965858936309814,2.0,4.0,no distraction,none,short,4.0,4.0,1.0,1.0,1.0,1.0,23
14,1,0.6926701068878174,2.0,5.0,no distraction,none,short,4.0,4.0,1.0,1.0,1.0,1.0,24
14,1,0.8366961479187012,2.0,6.0,no distraction,none,short,4.0,4.0,1.0,1.0,1.0,1.0,25
14,1,0.733712911605835,2.0,7.0,no distraction,none,short,4.0,4.0,1.0,1.0,1.0,1.0,26
14,1,0.6602339744567871,2.0,8.0,no distraction,none,short,4.0,4.0,1.0,1.0,1.0,1.0,27
14,1,0.5652408599853516,2.0,9.0,no distraction,none,short,4.0,4.0,1.0,1.0,1.0,1.0,28
14,1,0.7230420112609863,2.0,10.0,no distraction,none,short,4.0,4.0,1.0,1.0,1.0,1.0,29
14,1,0.7817108631134033,3.0,1.0,with distraction,filtered,short,4.0,4.0,1.0,1.0,1.0,1.0,30
14,1,0.808046817779541,3.0,2.0,with distraction,filtered,short,4.0,4.0,1.0,1.0,1.0,1.0,31
14,1,0.8366758823394775,3.0,3.0,with distraction,filtered,short,4.0,4.0,1.0,1.0,1.0,1.0,32
14,1,0.5736949443817139,3.0,4.0,with distraction,filtered,short,4.0,4.0,1.0,1.0,1.0,1.0,33
14,1,1.483109951019287,3.0,5.0,with distraction,filtered,short,4.0,4.0,1.0,1.0,1.0,1.0,34
14,1,0.9499080181121826,3.0,6.0,with distraction,filtered,short,4.0,4.0,1.0,1.0,1.0,1.0,35
14,1,0.8085370063781738,3.0,7.0,with distraction,filtered,short,4.0,4.0,1.0,1.0,1.0,1.0,36
14,1,0.9470000267028807,3.0,8.0,with distraction,filtered,short,4.0,4.0,1.0,1.0,1.0,1.0,37
14,1,1.0440771579742432,3.0,9.0,with distraction,filtered,short,4.0,4.0,1.0,1.0,1.0,1.0,38
14,1,0.9452941417694092,3.0,10.0,with distraction,filtered,short,4.0,4.0,1.0,1.0,1.0,1.0,39
14,1,1.0358068943023682,4.0,1.0,with distraction,filtered,long,6.0,5.0,1.0,5.0,1.0,3.0,40
14,1,0.9407460689544678,4.0,2.0,with distraction,filtered,long,6.0,5.0,1.0,5.0,1.0,3.0,41
14,1,0.947218894958496,4.0,3.0,with distraction,filtered,long,6.0,5.0,1.0,5.0,1.0,3.0,42
14,1,0.953693389892578,4.0,4.0,with distraction,filtered,long,6.0,5.0,1.0,5.0,1.0,3.0,43
14,1,0.9183402061462402,4.0,5.0,with distraction,filtered,long,6.0,5.0,1.0,5.0,1.0,3.0,44
14,1,0.932685136795044,4.0,6.0,with distraction,filtered,long,6.0,5.0,1.0,5.0,1.0,3.0,45
14,1,0.9213268756866456,4.0,7.0,with distraction,filtered,long,6.0,5.0,1.0,5.0,1.0,3.0,46
14,1,1.2127721309661863,4.0,8.0,with distraction,filtered,long,6.0,5.0,1.0,5.0,1.0,3.0,47
14,1,1.214677095413208,4.0,9.0,with distraction,filtered,long,6.0,5.0,1.0,5.0,1.0,3.0,48
14,1,0.9456462860107422,5.0,1.0,with distraction,none,long,4.0,4.0,1.0,1.0,1.0,1.0,49
14,1,1.1193568706512451,5.0,2.0,with distraction,none,long,4.0,4.0,1.0,1.0,1.0,1.0,50
14,1,0.917686939239502,5.0,3.0,with distraction,none,long,4.0,4.0,1.0,1.0,1.0,1.0,51
14,1,1.082824945449829,5.0,4.0,with distraction,none,long,4.0,4.0,1.0,1.0,1.0,1.0,52
14,1,1.31671404838562,5.0,5.0,with distraction,none,long,4.0,4.0,1.0,1.0,1.0,1.0,53
14,1,1.3422460556030271,5.0,6.0,with distraction,none,long,4.0,4.0,1.0,1.0,1.0,1.0,54
14,1,0.8113372325897217,5.0,7.0,with distraction,none,long,4.0,4.0,1.0,1.0,1.0,1.0,55
14,1,1.2060492038726809,5.0,8.0,with distraction,none,long,4.0,4.0,1.0,1.0,1.0,1.0,56
14,1,1.3808941841125488,5.0,9.0,with distraction,none,long,4.0,4.0,1.0,1.0,1.0,1.0,57
14,1,0.9528722763061525,6.0,1.0,with distraction,static,long,4.0,4.0,2.0,1.0,2.0,2.0,58
14,1,1.1247859001159668,6.0,2.0,with distraction,static,long,4.0,4.0,2.0,1.0,2.0,2.0,59
14,1,1.0835189819335938,6.0,3.0,with distraction,static,long,4.0,4.0,2.0,1.0,2.0,2.0,60
14,1,0.9522261619567872,6.0,4.0,with distraction,static,long,4.0,4.0,2.0,1.0,2.0,2.0,61
14,1,1.227921962738037,6.0,5.0,with distraction,static,long,4.0,4.0,2.0,1.0,2.0,2.0,62
14,0,1.891772747039795,6.0,6.0,with distraction,static,long,4.0,4.0,2.0,1.0,2.0,2.0,63
14,1,1.073861837387085,6.0,7.0,with distraction,static,long,4.0,4.0,2.0,1.0,2.0,2.0,64
14,1,1.2394051551818848,6.0,8.0,with distraction,static,long,4.0,4.0,2.0,1.0,2.0,2.0,65
14,1,1.071239948272705,6.0,9.0,with distraction,static,long,4.0,4.0,2.0,1.0,2.0,2.0,66
14,1,0.946552038192749,6.0,10.0,with distraction,static,long,4.0,4.0,2.0,1.0,2.0,2.0,67
14,1,0.8385300636291504,7.0,1.0,no distraction,static,short,4.0,4.0,1.0,1.0,1.0,1.0,68
14,1,0.6147129535675049,7.0,2.0,no distraction,static,short,4.0,4.0,1.0,1.0,1.0,1.0,69
14,1,0.6204700469970703,7.0,3.0,no distraction,static,short,4.0,4.0,1.0,1.0,1.0,1.0,70
14,1,0.641463041305542,7.0,4.0,no distraction,static,short,4.0,4.0,1.0,1.0,1.0,1.0,71
14,1,0.5693860054016113,7.0,5.0,no distraction,static,short,4.0,4.0,1.0,1.0,1.0,1.0,72
14,1,0.7131016254425049,7.0,6.0,no distraction,static,short,4.0,4.0,1.0,1.0,1.0,1.0,73
14,1,0.5914990901947021,7.0,7.0,no distraction,static,short,4.0,4.0,1.0,1.0,1.0,1.0,74
14,0,0.681908130645752,7.0,8.0,no distraction,static,short,4.0,4.0,1.0,1.0,1.0,1.0,75
14,1,0.5920047760009766,7.0,9.0,no distraction,static,short,4.0,4.0,1.0,1.0,1.0,1.0,76
14,1,0.5771749019622803,7.0,10.0,no distraction,static,short,4.0,4.0,1.0,1.0,1.0,1.0,77
14,1,0.8415920734405518,8.0,1.0,with distraction,static,short,4.0,4.0,1.0,1.0,1.0,1.0,78
14,1,0.8158771991729736,8.0,2.0,with distraction,static,short,4.0,4.0,1.0,1.0,1.0,1.0,79
14,1,0.8428781032562256,8.0,3.0,with distraction,static,short,4.0,4.0,1.0,1.0,1.0,1.0,80
14,1,1.07745099067688,8.0,4.0,with distraction,static,short,4.0,4.0,1.0,1.0,1.0,1.0,81
14,1,1.0778801441192627,8.0,5.0,with distraction,static,short,4.0,4.0,1.0,1.0,1.0,1.0,82
14,1,0.9535107612609864,8.0,6.0,with distraction,static,short,4.0,4.0,1.0,1.0,1.0,1.0,83
14,1,0.9483840465545654,8.0,7.0,with distraction,static,short,4.0,4.0,1.0,1.0,1.0,1.0,84
14,1,0.931143045425415,8.0,8.0,with distraction,static,short,4.0,4.0,1.0,1.0,1.0,1.0,85
14,1,0.9421632289886476,8.0,9.0,with distraction,static,short,4.0,4.0,1.0,1.0,1.0,1.0,86
14,1,0.9380981922149658,8.0,10.0,with distraction,static,short,4.0,4.0,1.0,1.0,1.0,1.0,87
14,1,0.7522189617156982,9.0,1.0,no distraction,filtered,long,4.0,4.0,1.0,1.0,1.0,3.0,88
14,1,0.9188997745513916,9.0,2.0,no distraction,filtered,long,4.0,4.0,1.0,1.0,1.0,3.0,89
14,1,1.1637659072875977,9.0,3.0,no distraction,filtered,long,4.0,4.0,1.0,1.0,1.0,3.0,90
14,1,1.259171962738037,9.0,4.0,no distraction,filtered,long,4.0,4.0,1.0,1.0,1.0,3.0,91
14,1,0.9922850131988524,9.0,5.0,no distraction,filtered,long,4.0,4.0,1.0,1.0,1.0,3.0,92
14,1,1.0118939876556396,9.0,6.0,no distraction,filtered,long,4.0,4.0,1.0,1.0,1.0,3.0,93
14,1,0.60247802734375,9.0,7.0,no distraction,filtered,long,4.0,4.0,1.0,1.0,1.0,3.0,94
14,1,0.74149489402771,9.0,8.0,no distraction,filtered,long,4.0,4.0,1.0,1.0,1.0,3.0,95
14,1,1.3507521152496338,9.0,9.0,no distraction,filtered,long,4.0,4.0,1.0,1.0,1.0,3.0,96
14,1,0.9450550079345704,9.0,10.0,no distraction,filtered,long,4.0,4.0,1.0,1.0,1.0,3.0,97
14,1,0.9446280002593994,10.0,1.0,with distraction,none,short,4.0,4.0,1.0,1.0,1.0,1.0,98
14,1,0.7125208377838135,10.0,2.0,with distraction,none,short,4.0,4.0,1.0,1.0,1.0,1.0,99
14,0,0.8447728157043457,10.0,3.0,with distraction,none,short,4.0,4.0,1.0,1.0,1.0,1.0,100
14,1,1.2042999267578125,10.0,4.0,with distraction,none,short,4.0,4.0,1.0,1.0,1.0,1.0,101
14,1,0.9813289642333984,10.0,5.0,with distraction,none,short,4.0,4.0,1.0,1.0,1.0,1.0,102
14,1,1.055830955505371,10.0,6.0,with distraction,none,short,4.0,4.0,1.0,1.0,1.0,1.0,103
14,1,0.951693058013916,10.0,7.0,with distraction,none,short,4.0,4.0,1.0,1.0,1.0,1.0,104
14,1,0.8226418495178223,10.0,8.0,with distraction,none,short,4.0,4.0,1.0,1.0,1.0,1.0,105
14,1,0.9409151077270508,10.0,9.0,with distraction,none,short,4.0,4.0,1.0,1.0,1.0,1.0,106
14,1,1.0891966819763184,10.0,10.0,with distraction,none,short,4.0,4.0,1.0,1.0,1.0,1.0,107
14,1,1.6110479831695557,11.0,1.0,no distraction,filtered,short,4.0,4.0,1.0,1.0,1.0,1.0,108
14,1,0.7270469665527344,11.0,2.0,no distraction,filtered,short,4.0,4.0,1.0,1.0,1.0,1.0,109
14,1,0.6288750171661377,11.0,3.0,no distraction,filtered,short,4.0,4.0,1.0,1.0,1.0,1.0,110
14,1,0.5683929920196533,11.0,4.0,no distraction,filtered,short,4.0,4.0,1.0,1.0,1.0,1.0,111
14,0,0.7219321727752686,11.0,5.0,no distraction,filtered,short,4.0,4.0,1.0,1.0,1.0,1.0,112
14,1,0.8356800079345703,11.0,6.0,no distraction,filtered,short,4.0,4.0,1.0,1.0,1.0,1.0,113
14,1,0.5929121971130371,11.0,7.0,no distraction,filtered,short,4.0,4.0,1.0,1.0,1.0,1.0,114
14,1,0.8001668453216553,11.0,8.0,no distraction,filtered,short,4.0,4.0,1.0,1.0,1.0,1.0,115
14,1,0.6546249389648438,11.0,9.0,no distraction,filtered,short,4.0,4.0,1.0,1.0,1.0,1.0,116
14,1,0.7281689643859863,11.0,10.0,no distraction,filtered,short,4.0,4.0,1.0,1.0,1.0,1.0,117
3,1,0.9975769519805908,0.0,1.0,no distraction,filtered,long,4.0,5.0,1.0,2.0,1.0,1.0,1
3,1,1.1513400077819824,0.0,2.0,no distraction,filtered,long,4.0,5.0,1.0,2.0,1.0,1.0,2
3,1,0.6318178176879883,0.0,3.0,no distraction,filtered,long,4.0,5.0,1.0,2.0,1.0,1.0,3
3,1,0.6391041278839111,0.0,4.0,no distraction,filtered,long,4.0,5.0,1.0,2.0,1.0,1.0,4
3,1,0.8413848876953125,0.0,5.0,no distraction,filtered,long,4.0,5.0,1.0,2.0,1.0,1.0,5
3,1,0.7158188819885254,0.0,6.0,no distraction,filtered,long,4.0,5.0,1.0,2.0,1.0,1.0,6
3,1,0.6657559871673584,0.0,7.0,no distraction,filtered,long,4.0,5.0,1.0,2.0,1.0,1.0,7
3,1,0.521712064743042,0.0,8.0,no distraction,filtered,long,4.0,5.0,1.0,2.0,1.0,1.0,8
3,1,0.6393148899078369,0.0,9.0,no distraction,filtered,long,4.0,5.0,1.0,2.0,1.0,1.0,9
3,1,0.5892689228057861,0.0,10.0,no distraction,filtered,long,4.0,5.0,1.0,2.0,1.0,1.0,10
3,1,0.8083651065826416,1.0,1.0,with distraction,none,short,4.0,4.0,1.0,1.0,1.0,1.0,11
3,1,0.8156712055206299,1.0,2.0,with distraction,none,short,4.0,4.0,1.0,1.0,1.0,1.0,12
3,1,0.6768980026245117,1.0,3.0,with distraction,none,short,4.0,4.0,1.0,1.0,1.0,1.0,13
3,1,0.953801155090332,1.0,4.0,with distraction,none,short,4.0,4.0,1.0,1.0,1.0,1.0,14
3,0,0.5746848583221436,1.0,5.0,with distraction,none,short,4.0,4.0,1.0,1.0,1.0,1.0,15
3,1,0.7056529521942139,1.0,6.0,with distraction,none,short,4.0,4.0,1.0,1.0,1.0,1.0,16
3,1,0.7257626056671143,1.0,7.0,with distraction,none,short,4.0,4.0,1.0,1.0,1.0,1.0,17
3,1,0.8046720027923584,1.0,8.0,with distraction,none,short,4.0,4.0,1.0,1.0,1.0,1.0,18
3,1,0.8074750900268555,1.0,9.0,with distraction,none,short,4.0,4.0,1.0,1.0,1.0,1.0,19
3,1,0.9396300315856934,1.0,10.0,with distraction,none,short,4.0,4.0,1.0,1.0,1.0,1.0,20
3,1,0.9418089389801024,2.0,1.0,with distraction,none,long,4.0,4.0,1.0,1.0,1.0,1.0,21
3,1,0.7831599712371826,2.0,2.0,with distraction,none,long,4.0,4.0,1.0,1.0,1.0,1.0,22
3,1,0.9301235675811768,2.0,3.0,with distraction,none,long,4.0,4.0,1.0,1.0,1.0,1.0,23
3,1,0.8163471221923828,2.0,4.0,with distraction,none,long,4.0,4.0,1.0,1.0,1.0,1.0,24
3,1,0.8456146717071533,2.0,5.0,with distraction,none,long,4.0,4.0,1.0,1.0,1.0,1.0,25
3,1,1.082042932510376,2.0,6.0,with distraction,none,long,4.0,4.0,1.0,1.0,1.0,1.0,26
3,1,0.935871124267578,2.0,7.0,with distraction,none,long,4.0,4.0,1.0,1.0,1.0,1.0,27
3,1,0.836022138595581,2.0,8.0,with distraction,none,long,4.0,4.0,1.0,1.0,1.0,1.0,28
3,1,0.8269879817962646,2.0,9.0,with distraction,none,long,4.0,4.0,1.0,1.0,1.0,1.0,29
3,1,0.8470330238342285,2.0,10.0,with distraction,none,long,4.0,4.0,1.0,1.0,1.0,1.0,30
3,1,0.6908590793609619,3.0,1.0,no distraction,none,long,4.0,4.0,1.0,1.0,1.0,1.0,31
3,1,0.6142380237579346,3.0,2.0,no distraction,none,long,4.0,4.0,1.0,1.0,1.0,1.0,32
3,1,0.6438429355621338,3.0,3.0,no distraction,none,long,4.0,4.0,1.0,1.0,1.0,1.0,33
3,1,0.6088089942932129,3.0,4.0,no distraction,none,long,4.0,4.0,1.0,1.0,1.0,1.0,34
3,1,0.6474378108978271,3.0,6.0,no distraction,none,long,4.0,4.0,1.0,1.0,1.0,1.0,35
3,1,0.7719271183013916,3.0,7.0,no distraction,none,long,4.0,4.0,1.0,1.0,1.0,1.0,36
3,1,0.6695528030395508,3.0,8.0,no distraction,none,long,4.0,4.0,1.0,1.0,1.0,1.0,37
3,1,0.5985250473022461,3.0,9.0,no distraction,none,long,4.0,4.0,1.0,1.0,1.0,1.0,38
3,1,0.6130101680755615,3.0,10.0,no distraction,none,long,4.0,4.0,1.0,1.0,1.0,1.0,39
3,1,0.8547971248626709,4.0,1.0,with distraction,filtered,long,4.0,4.0,1.0,2.0,1.0,1.0,40
3,1,0.9438788890838624,4.0,2.0,with distraction,filtered,long,4.0,4.0,1.0,2.0,1.0,1.0,41
3,1,0.9430630207061768,4.0,3.0,with distraction,filtered,long,4.0,4.0,1.0,2.0,1.0,1.0,42
3,1,0.9499340057373048,4.0,4.0,with distraction,filtered,long,4.0,4.0,1.0,2.0,1.0,1.0,43
3,1,0.919130802154541,4.0,5.0,with distraction,filtered,long,4.0,4.0,1.0,2.0,1.0,1.0,44
3,1,0.8160839080810547,4.0,6.0,with distraction,filtered,long,4.0,4.0,1.0,2.0,1.0,1.0,45
3,1,0.9358830451965332,4.0,7.0,with distraction,filtered,long,4.0,4.0,1.0,2.0,1.0,1.0,46
3,1,0.9403839111328124,4.0,8.0,with distraction,filtered,long,4.0,4.0,1.0,2.0,1.0,1.0,47
3,1,0.9156880378723145,4.0,9.0,with distraction,filtered,long,4.0,4.0,1.0,2.0,1.0,1.0,48
3,1,0.7835159301757812,4.0,10.0,with distraction,filtered,long,4.0,4.0,1.0,2.0,1.0,1.0,49
3,1,0.5879738330841064,5.0,1.0,no distraction,static,short,4.0,4.0,1.0,1.0,1.0,1.0,50
3,1,0.5007319450378418,5.0,2.0,no distraction,static,short,4.0,4.0,1.0,1.0,1.0,1.0,51
3,1,0.6025669574737549,5.0,3.0,no distraction,static,short,4.0,4.0,1.0,1.0,1.0,1.0,52
3,1,0.7373991012573242,5.0,4.0,no distraction,static,short,4.0,4.0,1.0,1.0,1.0,1.0,53
3,1,0.533898115158081,5.0,5.0,no distraction,static,short,4.0,4.0,1.0,1.0,1.0,1.0,54
3,1,0.5768258571624756,5.0,6.0,no distraction,static,short,4.0,4.0,1.0,1.0,1.0,1.0,55
3,1,0.5695970058441162,5.0,7.0,no distraction,static,short,4.0,4.0,1.0,1.0,1.0,1.0,56
3,1,0.5180540084838867,5.0,8.0,no distraction,static,short,4.0,4.0,1.0,1.0,1.0,1.0,57
3,1,0.5556919574737549,5.0,9.0,no distraction,static,short,4.0,4.0,1.0,1.0,1.0,1.0,58
3,1,0.4969770908355713,5.0,10.0,no distraction,static,short,4.0,4.0,1.0,1.0,1.0,1.0,59
3,1,0.5702879428863525,6.0,1.0,no distraction,none,short,4.0,4.0,1.0,1.0,1.0,1.0,60
3,1,0.4630730152130127,6.0,2.0,no distraction,none,short,4.0,4.0,1.0,1.0,1.0,1.0,61
3,1,0.5144538879394531,6.0,3.0,no distraction,none,short,4.0,4.0,1.0,1.0,1.0,1.0,62
3,1,0.5402400493621826,6.0,4.0,no distraction,none,short,4.0,4.0,1.0,1.0,1.0,1.0,63
3,1,0.5072536468505859,6.0,5.0,no distraction,none,short,4.0,4.0,1.0,1.0,1.0,1.0,64
3,1,0.4581828117370605,6.0,6.0,no distraction,none,short,4.0,4.0,1.0,1.0,1.0,1.0,65
3,1,0.6065049171447754,6.0,7.0,no distraction,none,short,4.0,4.0,1.0,1.0,1.0,1.0,66
3,1,0.5407669544219971,6.0,8.0,no distraction,none,short,4.0,4.0,1.0,1.0,1.0,1.0,67
3,1,0.603679895401001,6.0,9.0,no distraction,none,short,4.0,4.0,1.0,1.0,1.0,1.0,68
3,1,0.531731128692627,6.0,10.0,no distraction,none,short,4.0,4.0,1.0,1.0,1.0,1.0,69
3,1,0.501760721206665,7.0,1.0,no distraction,filtered,short,4.0,4.0,1.0,1.0,1.0,1.0,70
3,1,0.6460130214691162,7.0,2.0,no distraction,filtered,short,4.0,4.0,1.0,1.0,1.0,1.0,71
3,1,0.482774019241333,7.0,3.0,no distraction,filtered,short,4.0,4.0,1.0,1.0,1.0,1.0,72
3,1,0.5041348934173584,7.0,4.0,no distraction,filtered,short,4.0,4.0,1.0,1.0,1.0,1.0,73
3,1,0.5244300365447998,7.0,5.0,no distraction,filtered,short,4.0,4.0,1.0,1.0,1.0,1.0,74
3,1,0.4911880493164062,7.0,6.0,no distraction,filtered,short,4.0,4.0,1.0,1.0,1.0,1.0,75
3,1,0.6287429332733154,7.0,7.0,no distraction,filtered,short,4.0,4.0,1.0,1.0,1.0,1.0,76
3,1,0.369049072265625,7.0,8.0,no distraction,filtered,short,4.0,4.0,1.0,1.0,1.0,1.0,77
3,1,0.4788129329681396,7.0,9.0,no distraction,filtered,short,4.0,4.0,1.0,1.0,1.0,1.0,78
3,1,0.4027559757232666,7.0,10.0,no distraction,filtered,short,4.0,4.0,1.0,1.0,1.0,1.0,79
3,1,0.621283769607544,8.0,1.0,no distraction,static,long,4.0,4.0,1.0,1.0,1.0,1.0,80
3,1,0.6383862495422363,8.0,2.0,no distraction,static,long,4.0,4.0,1.0,1.0,1.0,1.0,81
3,1,0.6276659965515137,8.0,3.0,no distraction,static,long,4.0,4.0,1.0,1.0,1.0,1.0,82
3,1,0.5894272327423096,8.0,4.0,no distraction,static,long,4.0,4.0,1.0,1.0,1.0,1.0,83
3,1,0.6490869522094727,8.0,5.0,no distraction,static,long,4.0,4.0,1.0,1.0,1.0,1.0,84
3,1,0.6372890472412109,8.0,6.0,no distraction,static,long,4.0,4.0,1.0,1.0,1.0,1.0,85
3,1,0.7378449440002441,8.0,7.0,no distraction,static,long,4.0,4.0,1.0,1.0,1.0,1.0,86
3,1,0.5643858909606934,8.0,8.0,no distraction,static,long,4.0,4.0,1.0,1.0,1.0,1.0,87
3,1,0.6522691249847412,8.0,9.0,no distraction,static,long,4.0,4.0,1.0,1.0,1.0,1.0,88
3,1,0.8204209804534912,9.0,1.0,with distraction,static,short,4.0,4.0,1.0,1.0,1.0,1.0,89
3,1,0.8149759769439697,9.0,2.0,with distraction,static,short,4.0,4.0,1.0,1.0,1.0,1.0,90
3,1,0.6382062435150146,9.0,3.0,with distraction,static,short,4.0,4.0,1.0,1.0,1.0,1.0,91
3,1,0.6788790225982666,9.0,4.0,with distraction,static,short,4.0,4.0,1.0,1.0,1.0,1.0,92
3,1,0.6784203052520752,9.0,5.0,with distraction,static,short,4.0,4.0,1.0,1.0,1.0,1.0,93
3,1,0.6487340927124023,9.0,6.0,with distraction,static,short,4.0,4.0,1.0,1.0,1.0,1.0,94
3,1,0.8101620674133301,9.0,7.0,with distraction,static,short,4.0,4.0,1.0,1.0,1.0,1.0,95
3,1,0.6440939903259277,9.0,8.0,with distraction,static,short,4.0,4.0,1.0,1.0,1.0,1.0,96
3,1,0.6762559413909912,9.0,9.0,with distraction,static,short,4.0,4.0,1.0,1.0,1.0,1.0,97
3,1,0.6708688735961914,9.0,10.0,with distraction,static,short,4.0,4.0,1.0,1.0,1.0,1.0,98
3,1,0.8088047504425049,10.0,1.0,with distraction,static,long,4.0,4.0,1.0,1.0,1.0,1.0,99
3,1,0.713810920715332,10.0,2.0,with distraction,static,long,4.0,4.0,1.0,1.0,1.0,1.0,100
3,1,0.8215498924255371,10.0,3.0,with distraction,static,long,4.0,4.0,1.0,1.0,1.0,1.0,101
3,1,0.8047299385070801,10.0,4.0,with distraction,static,long,4.0,4.0,1.0,1.0,1.0,1.0,102
3,1,0.8263380527496338,10.0,5.0,with distraction,static,long,4.0,4.0,1.0,1.0,1.0,1.0,103
3,1,0.8128960132598877,10.0,6.0,with distraction,static,long,4.0,4.0,1.0,1.0,1.0,1.0,104
3,1,0.7848620414733887,10.0,7.0,with distraction,static,long,4.0,4.0,1.0,1.0,1.0,1.0,105
3,1,0.817694902420044,10.0,8.0,with distraction,static,long,4.0,4.0,1.0,1.0,1.0,1.0,106
3,1,0.9081947803497314,10.0,9.0,with distraction,static,long,4.0,4.0,1.0,1.0,1.0,1.0,107
3,1,0.8433547019958496,10.0,10.0,with distraction,static,long,4.0,4.0,1.0,1.0,1.0,1.0,108
3,1,0.7033679485321045,11.0,1.0,with distraction,filtered,short,4.0,4.0,1.0,1.0,1.0,1.0,109
3,1,0.5343790054321289,11.0,2.0,with distraction,filtered,short,4.0,4.0,1.0,1.0,1.0,1.0,110
3,1,0.6807396411895752,11.0,3.0,with distraction,filtered,short,4.0,4.0,1.0,1.0,1.0,1.0,111
3,1,0.5062637329101562,11.0,4.0,with distraction,filtered,short,4.0,4.0,1.0,1.0,1.0,1.0,112
3,1,0.6813821792602539,11.0,5.0,with distraction,filtered,short,4.0,4.0,1.0,1.0,1.0,1.0,113
3,1,0.5454368591308594,11.0,6.0,with distraction,filtered,short,4.0,4.0,1.0,1.0,1.0,1.0,114
3,1,0.8115789890289307,11.0,7.0,with distraction,filtered,short,4.0,4.0,1.0,1.0,1.0,1.0,115
3,1,0.6739270687103271,11.0,8.0,with distraction,filtered,short,4.0,4.0,1.0,1.0,1.0,1.0,116
3,1,0.6759839057922363,11.0,9.0,with distraction,filtered,short,4.0,4.0,1.0,1.0,1.0,1.0,117
3,1,0.5081210136413574,11.0,10.0,with distraction,filtered,short,4.0,4.0,1.0,1.0,1.0,1.0,118
6,1,0.8516700267791748,0.0,1.0,with distraction,static,short,3.0,3.0,4.0,6.0,6.0,6.0,1
6,1,0.948089838027954,0.0,2.0,with distraction,static,short,3.0,3.0,4.0,6.0,6.0,6.0,2
6,1,0.7774970531463623,0.0,3.0,with distraction,static,short,3.0,3.0,4.0,6.0,6.0,6.0,3
6,1,0.6579959392547607,0.0,4.0,with distraction,static,short,3.0,3.0,4.0,6.0,6.0,6.0,4
6,1,0.6726689338684082,0.0,5.0,with distraction,static,short,3.0,3.0,4.0,6.0,6.0,6.0,5
6,1,0.7999742031097412,0.0,6.0,with distraction,static,short,3.0,3.0,4.0,6.0,6.0,6.0,6
6,1,0.952932834625244,0.0,7.0,with distraction,static,short,3.0,3.0,4.0,6.0,6.0,6.0,7
6,1,0.8107352256774902,0.0,8.0,with distraction,static,short,3.0,3.0,4.0,6.0,6.0,6.0,8
6,1,0.9410691261291504,0.0,9.0,with distraction,static,short,3.0,3.0,4.0,6.0,6.0,6.0,9
6,1,0.7983288764953613,0.0,10.0,with distraction,static,short,3.0,3.0,4.0,6.0,6.0,6.0,10
6,1,0.7554540634155273,1.0,1.0,no distraction,static,short,2.0,2.0,6.0,5.0,7.0,4.0,11
6,1,0.582603931427002,1.0,2.0,no distraction,static,short,2.0,2.0,6.0,5.0,7.0,4.0,12
6,1,0.7217421531677246,1.0,3.0,no distraction,static,short,2.0,2.0,6.0,5.0,7.0,4.0,13
6,1,0.6572039127349854,1.0,4.0,no distraction,static,short,2.0,2.0,6.0,5.0,7.0,4.0,14
6,1,0.9116227626800536,1.0,5.0,no distraction,static,short,2.0,2.0,6.0,5.0,7.0,4.0,15
6,1,0.7521228790283203,1.0,6.0,no distraction,static,short,2.0,2.0,6.0,5.0,7.0,4.0,16
6,1,0.6143398284912109,1.0,7.0,no distraction,static,short,2.0,2.0,6.0,5.0,7.0,4.0,17
6,1,0.6857089996337891,1.0,8.0,no distraction,static,short,2.0,2.0,6.0,5.0,7.0,4.0,18
6,1,0.7138359546661377,1.0,9.0,no distraction,static,short,2.0,2.0,6.0,5.0,7.0,4.0,19
6,1,0.8212080001831055,1.0,10.0,no distraction,static,short,2.0,2.0,6.0,5.0,7.0,4.0,20
6,1,0.8287291526794434,2.0,1.0,no distraction,filtered,long,5.0,3.0,3.0,6.0,6.0,6.0,21
6,1,0.6113259792327881,2.0,2.0,no distraction,filtered,long,5.0,3.0,3.0,6.0,6.0,6.0,22
6,1,0.674494743347168,2.0,3.0,no distraction,filtered,long,5.0,3.0,3.0,6.0,6.0,6.0,23
6,1,0.8012831211090088,2.0,4.0,no distraction,filtered,long,5.0,3.0,3.0,6.0,6.0,6.0,24
6,1,0.7199759483337402,2.0,5.0,no distraction,filtered,long,5.0,3.0,3.0,6.0,6.0,6.0,25
6,1,0.6620230674743652,2.0,6.0,no distraction,filtered,long,5.0,3.0,3.0,6.0,6.0,6.0,26
6,1,0.7828009128570557,2.0,7.0,no distraction,filtered,long,5.0,3.0,3.0,6.0,6.0,6.0,27
6,1,0.7510261535644531,2.0,8.0,no distraction,filtered,long,5.0,3.0,3.0,6.0,6.0,6.0,28
6,1,1.037730693817139,2.0,9.0,no distraction,filtered,long,5.0,3.0,3.0,6.0,6.0,6.0,29
6,1,0.974146842956543,2.0,10.0,no distraction,filtered,long,5.0,3.0,3.0,6.0,6.0,6.0,30
6,1,1.0354092121124268,3.0,1.0,with distraction,static,long,5.0,5.0,5.0,6.0,7.0,7.0,31
6,1,0.9400439262390136,3.0,2.0,with distraction,static,long,5.0,5.0,5.0,6.0,7.0,7.0,32
6,1,0.9042928218841552,3.0,3.0,with distraction,static,long,5.0,5.0,5.0,6.0,7.0,7.0,33
6,1,1.0990972518920898,3.0,4.0,with distraction,static,long,5.0,5.0,5.0,6.0,7.0,7.0,34
6,1,0.9810140132904052,3.0,5.0,with distraction,static,long,5.0,5.0,5.0,6.0,7.0,7.0,35
6,1,1.0476019382476809,3.0,6.0,with distraction,static,long,5.0,5.0,5.0,6.0,7.0,7.0,36
6,1,1.0646960735321045,3.0,7.0,with distraction,static,long,5.0,5.0,5.0,6.0,7.0,7.0,37
6,1,1.046804904937744,3.0,8.0,with distraction,static,long,5.0,5.0,5.0,6.0,7.0,7.0,38
6,1,1.1767351627349854,3.0,9.0,with distraction,static,long,5.0,5.0,5.0,6.0,7.0,7.0,39
6,1,1.0599679946899414,3.0,10.0,with distraction,static,long,5.0,5.0,5.0,6.0,7.0,7.0,40
6,1,1.082310914993286,4.0,2.0,with distraction,none,long,4.0,4.0,1.0,1.0,1.0,1.0,41
6,1,1.0699889659881592,4.0,3.0,with distraction,none,long,4.0,4.0,1.0,1.0,1.0,1.0,42
6,1,0.905148983001709,4.0,4.0,with distraction,none,long,4.0,4.0,1.0,1.0,1.0,1.0,43
6,1,1.106184005737305,4.0,5.0,with distraction,none,long,4.0,4.0,1.0,1.0,1.0,1.0,44
6,1,1.081282138824463,4.0,6.0,with distraction,none,long,4.0,4.0,1.0,1.0,1.0,1.0,45
6,1,0.9317567348480223,4.0,7.0,with distraction,none,long,4.0,4.0,1.0,1.0,1.0,1.0,46
6,1,1.0853159427642822,4.0,8.0,with distraction,none,long,4.0,4.0,1.0,1.0,1.0,1.0,47
6,1,1.1722140312194824,4.0,10.0,with distraction,none,long,4.0,4.0,1.0,1.0,1.0,1.0,48
6,1,0.9348289966583252,5.0,1.0,no distraction,filtered,short,5.0,5.0,6.0,6.0,6.0,6.0,49
6,1,0.6185827255249023,5.0,2.0,no distraction,filtered,short,5.0,5.0,6.0,6.0,6.0,6.0,50
6,1,0.619096040725708,5.0,3.0,no distraction,filtered,short,5.0,5.0,6.0,6.0,6.0,6.0,51
6,1,0.7594249248504639,5.0,4.0,no distraction,filtered,short,5.0,5.0,6.0,6.0,6.0,6.0,52
6,1,0.5998630523681641,5.0,5.0,no distraction,filtered,short,5.0,5.0,6.0,6.0,6.0,6.0,53
6,1,0.5891969203948975,5.0,6.0,no distraction,filtered,short,5.0,5.0,6.0,6.0,6.0,6.0,54
6,1,0.5685062408447266,5.0,7.0,no distraction,filtered,short,5.0,5.0,6.0,6.0,6.0,6.0,55
6,1,0.6728007793426514,5.0,8.0,no distraction,filtered,short,5.0,5.0,6.0,6.0,6.0,6.0,56
6,1,0.6216881275177002,5.0,9.0,no distraction,filtered,short,5.0,5.0,6.0,6.0,6.0,6.0,57
6,1,0.5695278644561768,5.0,10.0,no distraction,filtered,short,5.0,5.0,6.0,6.0,6.0,6.0,58
6,1,0.8133611679077148,6.0,1.0,no distraction,none,long,4.0,4.0,1.0,1.0,1.0,1.0,59
6,1,0.773400068283081,6.0,2.0,no distraction,none,long,4.0,4.0,1.0,1.0,1.0,1.0,60
6,1,0.6623928546905518,6.0,3.0,no distraction,none,long,4.0,4.0,1.0,1.0,1.0,1.0,61
6,1,0.7547812461853027,6.0,4.0,no distraction,none,long,4.0,4.0,1.0,1.0,1.0,1.0,62
6,1,0.8136119842529297,6.0,5.0,no distraction,none,long,4.0,4.0,1.0,1.0,1.0,1.0,63
6,1,0.6958117485046387,6.0,6.0,no distraction,none,long,4.0,4.0,1.0,1.0,1.0,1.0,64
6,1,0.8336617946624756,6.0,8.0,no distraction,none,long,4.0,4.0,1.0,1.0,1.0,1.0,65
6,1,0.8057458400726318,6.0,10.0,no distraction,none,long,4.0,4.0,1.0,1.0,1.0,1.0,66
6,1,1.033947229385376,7.0,1.0,with distraction,none,short,4.0,4.0,1.0,1.0,1.0,1.0,67
6,1,0.7966489791870117,7.0,2.0,with distraction,none,short,4.0,4.0,1.0,1.0,1.0,1.0,68
6,1,0.8036589622497559,7.0,3.0,with distraction,none,short,4.0,4.0,1.0,1.0,1.0,1.0,69
6,1,0.639782190322876,7.0,4.0,with distraction,none,short,4.0,4.0,1.0,1.0,1.0,1.0,70
6,1,0.8014438152313232,7.0,5.0,with distraction,none,short,4.0,4.0,1.0,1.0,1.0,1.0,71
6,1,0.6775109767913818,7.0,6.0,with distraction,none,short,4.0,4.0,1.0,1.0,1.0,1.0,72
6,1,0.8072402477264404,7.0,7.0,with distraction,none,short,4.0,4.0,1.0,1.0,1.0,1.0,73
6,0,0.6726632118225098,7.0,8.0,with distraction,none,short,4.0,4.0,1.0,1.0,1.0,1.0,74
6,1,1.095824956893921,7.0,9.0,with distraction,none,short,4.0,4.0,1.0,1.0,1.0,1.0,75
6,1,0.9610638618469238,7.0,10.0,with distraction,none,short,4.0,4.0,1.0,1.0,1.0,1.0,76
6,1,1.2157649993896484,8.0,1.0,with distraction,filtered,long,6.0,5.0,3.0,6.0,6.0,6.0,77
6,1,0.944429874420166,8.0,2.0,with distraction,filtered,long,6.0,5.0,3.0,6.0,6.0,6.0,78
6,1,0.9731812477111816,8.0,3.0,with distraction,filtered,long,6.0,5.0,3.0,6.0,6.0,6.0,79
6,1,1.0804622173309326,8.0,4.0,with distraction,filtered,long,6.0,5.0,3.0,6.0,6.0,6.0,80
6,1,1.0976669788360596,8.0,5.0,with distraction,filtered,long,6.0,5.0,3.0,6.0,6.0,6.0,81
6,1,1.035336971282959,8.0,6.0,with distraction,filtered,long,6.0,5.0,3.0,6.0,6.0,6.0,82
6,1,0.94889497756958,8.0,7.0,with distraction,filtered,long,6.0,5.0,3.0,6.0,6.0,6.0,83
6,1,1.0751891136169434,8.0,8.0,with distraction,filtered,long,6.0,5.0,3.0,6.0,6.0,6.0,84
6,1,1.0886790752410889,8.0,9.0,with distraction,filtered,long,6.0,5.0,3.0,6.0,6.0,6.0,85
6,1,1.172739028930664,8.0,10.0,with distraction,filtered,long,6.0,5.0,3.0,6.0,6.0,6.0,86
6,1,0.7239620685577393,9.0,1.0,no distraction,none,short,4.0,4.0,1.0,1.0,1.0,1.0,87
6,1,0.6689860820770264,9.0,2.0,no distraction,none,short,4.0,4.0,1.0,1.0,1.0,1.0,88
6,1,0.6170470714569092,9.0,3.0,no distraction,none,short,4.0,4.0,1.0,1.0,1.0,1.0,89
6,1,0.59706711769104,9.0,4.0,no distraction,none,short,4.0,4.0,1.0,1.0,1.0,1.0,90
6,1,0.8525140285491943,9.0,5.0,no distraction,none,short,4.0,4.0,1.0,1.0,1.0,1.0,91
6,1,0.9038851261138916,9.0,6.0,no distraction,none,short,4.0,4.0,1.0,1.0,1.0,1.0,92
6,1,0.6760787963867188,9.0,7.0,no distraction,none,short,4.0,4.0,1.0,1.0,1.0,1.0,93
6,1,0.5782680511474609,9.0,8.0,no distraction,none,short,4.0,4.0,1.0,1.0,1.0,1.0,94
6,1,0.6634702682495117,9.0,9.0,no distraction,none,short,4.0,4.0,1.0,1.0,1.0,1.0,95
6,1,0.6617279052734375,9.0,10.0,no distraction,none,short,4.0,4.0,1.0,1.0,1.0,1.0,96
6,1,0.8714799880981445,10.0,1.0,no distraction,static,long,6.0,5.0,6.0,7.0,7.0,6.0,97
6,1,0.8615989685058594,10.0,3.0,no distraction,static,long,6.0,5.0,6.0,7.0,7.0,6.0,98
6,1,0.746143102645874,10.0,4.0,no distraction,static,long,6.0,5.0,6.0,7.0,7.0,6.0,99
6,1,0.6927800178527832,10.0,5.0,no distraction,static,long,6.0,5.0,6.0,7.0,7.0,6.0,100
6,1,0.8097290992736816,10.0,6.0,no distraction,static,long,6.0,5.0,6.0,7.0,7.0,6.0,101
6,1,0.7318589687347412,10.0,7.0,no distraction,static,long,6.0,5.0,6.0,7.0,7.0,6.0,102
6,1,0.8442680835723877,10.0,8.0,no distraction,static,long,6.0,5.0,6.0,7.0,7.0,6.0,103
6,1,0.8105931282043457,10.0,9.0,no distraction,static,long,6.0,5.0,6.0,7.0,7.0,6.0,104
6,1,0.8821549415588379,10.0,10.0,no distraction,static,long,6.0,5.0,6.0,7.0,7.0,6.0,105
6,1,0.9399480819702148,11.0,1.0,with distraction,filtered,short,5.0,5.0,3.0,3.0,6.0,6.0,106
6,1,0.9042329788208008,11.0,2.0,with distraction,filtered,short,5.0,5.0,3.0,3.0,6.0,6.0,107
6,1,0.9410500526428224,11.0,3.0,with distraction,filtered,short,5.0,5.0,3.0,3.0,6.0,6.0,108
6,1,0.8037729263305664,11.0,4.0,with distraction,filtered,short,5.0,5.0,3.0,3.0,6.0,6.0,109
6,1,0.805593729019165,11.0,5.0,with distraction,filtered,short,5.0,5.0,3.0,3.0,6.0,6.0,110
6,1,0.8351840972900391,11.0,6.0,with distraction,filtered,short,5.0,5.0,3.0,3.0,6.0,6.0,111
6,1,0.8047258853912354,11.0,7.0,with distraction,filtered,short,5.0,5.0,3.0,3.0,6.0,6.0,112
6,1,0.9476151466369628,11.0,8.0,with distraction,filtered,short,5.0,5.0,3.0,3.0,6.0,6.0,113
6,1,0.9816608428955078,11.0,9.0,with distraction,filtered,short,5.0,5.0,3.0,3.0,6.0,6.0,114
6,1,0.7732291221618652,11.0,10.0,with distraction,filtered,short,5.0,5.0,3.0,3.0,6.0,6.0,115
17,1,0.625542163848877,0.0,1.0,no distraction,static,long,6.0,5.0,5.0,5.0,2.0,6.0,1
17,0,0.4769363403320312,0.0,2.0,no distraction,static,long,6.0,5.0,5.0,5.0,2.0,6.0,2
17,1,0.9915058612823486,0.0,3.0,no distraction,static,long,6.0,5.0,5.0,5.0,2.0,6.0,3
17,1,0.9602129459381104,0.0,4.0,no distraction,static,long,6.0,5.0,5.0,5.0,2.0,6.0,4
17,1,0.9057319164276124,0.0,5.0,no distraction,static,long,6.0,5.0,5.0,5.0,2.0,6.0,5
17,1,1.1157541275024414,0.0,6.0,no distraction,static,long,6.0,5.0,5.0,5.0,2.0,6.0,6
17,1,1.0542941093444824,0.0,7.0,no distraction,static,long,6.0,5.0,5.0,5.0,2.0,6.0,7
17,1,0.991175889968872,0.0,8.0,no distraction,static,long,6.0,5.0,5.0,5.0,2.0,6.0,8
17,1,1.0108909606933594,0.0,9.0,no distraction,static,long,6.0,5.0,5.0,5.0,2.0,6.0,9
17,1,1.1029419898986816,0.0,10.0,no distraction,static,long,6.0,5.0,5.0,5.0,2.0,6.0,10
17,1,0.9694180488586426,1.0,1.0,no distraction,filtered,short,3.0,3.0,3.0,3.0,3.0,5.0,11
17,1,0.8067770004272461,1.0,2.0,no distraction,filtered,short,3.0,3.0,3.0,3.0,3.0,5.0,12
17,1,0.6888229846954346,1.0,3.0,no distraction,filtered,short,3.0,3.0,3.0,3.0,3.0,5.0,13
17,1,0.5561518669128418,1.0,4.0,no distraction,filtered,short,3.0,3.0,3.0,3.0,3.0,5.0,14
17,1,0.6966490745544434,1.0,5.0,no distraction,filtered,short,3.0,3.0,3.0,3.0,3.0,5.0,15
17,1,0.6574320793151855,1.0,6.0,no distraction,filtered,short,3.0,3.0,3.0,3.0,3.0,5.0,16
17,1,0.990015983581543,1.0,7.0,no distraction,filtered,short,3.0,3.0,3.0,3.0,3.0,5.0,17
17,1,0.8027558326721191,1.0,8.0,no distraction,filtered,short,3.0,3.0,3.0,3.0,3.0,5.0,18
17,1,0.773144006729126,1.0,9.0,no distraction,filtered,short,3.0,3.0,3.0,3.0,3.0,5.0,19
17,1,0.7357158660888672,1.0,10.0,no distraction,filtered,short,3.0,3.0,3.0,3.0,3.0,5.0,20
17,1,1.0527708530426023,2.0,1.0,no distraction,filtered,long,3.0,2.0,3.0,3.0,3.0,5.0,21
17,1,0.9258830547332764,2.0,2.0,no distraction,filtered,long,3.0,2.0,3.0,3.0,3.0,5.0,22
17,1,1.095607042312622,2.0,3.0,no distraction,filtered,long,3.0,2.0,3.0,3.0,3.0,5.0,23
17,1,0.9092197418212892,2.0,4.0,no distraction,filtered,long,3.0,2.0,3.0,3.0,3.0,5.0,24
17,1,0.9268858432769777,2.0,5.0,no distraction,filtered,long,3.0,2.0,3.0,3.0,3.0,5.0,25
17,1,0.8096389770507812,2.0,6.0,no distraction,filtered,long,3.0,2.0,3.0,3.0,3.0,5.0,26
17,1,0.8877320289611816,2.0,7.0,no distraction,filtered,long,3.0,2.0,3.0,3.0,3.0,5.0,27
17,1,0.8667240142822266,2.0,8.0,no distraction,filtered,long,3.0,2.0,3.0,3.0,3.0,5.0,28
17,1,1.0065979957580566,2.0,9.0,no distraction,filtered,long,3.0,2.0,3.0,3.0,3.0,5.0,29
17,1,0.8803558349609375,2.0,10.0,no distraction,filtered,long,3.0,2.0,3.0,3.0,3.0,5.0,30
17,1,1.2416799068450928,3.0,1.0,no distraction,static,short,3.0,3.0,2.0,5.0,5.0,5.0,31
17,1,0.8078298568725586,3.0,2.0,no distraction,static,short,3.0,3.0,2.0,5.0,5.0,5.0,32
17,1,0.6697306632995605,3.0,3.0,no distraction,static,short,3.0,3.0,2.0,5.0,5.0,5.0,33
17,1,0.6536448001861572,3.0,4.0,no distraction,static,short,3.0,3.0,2.0,5.0,5.0,5.0,34
17,1,0.6330201625823975,3.0,5.0,no distraction,static,short,3.0,3.0,2.0,5.0,5.0,5.0,35
17,1,0.6125717163085938,3.0,6.0,no distraction,static,short,3.0,3.0,2.0,5.0,5.0,5.0,36
17,1,0.5737988948822021,3.0,7.0,no distraction,static,short,3.0,3.0,2.0,5.0,5.0,5.0,37
17,1,0.6457669734954834,3.0,8.0,no distraction,static,short,3.0,3.0,2.0,5.0,5.0,5.0,38
17,1,0.6671998500823975,3.0,9.0,no distraction,static,short,3.0,3.0,2.0,5.0,5.0,5.0,39
17,1,0.7514538764953613,3.0,10.0,no distraction,static,short,3.0,3.0,2.0,5.0,5.0,5.0,40
17,1,0.8066577911376953,4.0,1.0,with distraction,filtered,long,3.0,3.0,3.0,5.0,5.0,4.0,41
17,1,1.2114379405975342,4.0,2.0,with distraction,filtered,long,3.0,3.0,3.0,5.0,5.0,4.0,42
17,1,1.361907958984375,4.0,3.0,with distraction,filtered,long,3.0,3.0,3.0,5.0,5.0,4.0,43
17,1,1.22131085395813,4.0,4.0,with distraction,filtered,long,3.0,3.0,3.0,5.0,5.0,4.0,44
17,1,1.0873937606811523,4.0,5.0,with distraction,filtered,long,3.0,3.0,3.0,5.0,5.0,4.0,45
17,1,1.038666009902954,4.0,6.0,with distraction,filtered,long,3.0,3.0,3.0,5.0,5.0,4.0,46
17,1,1.0435001850128174,4.0,7.0,with distraction,filtered,long,3.0,3.0,3.0,5.0,5.0,4.0,47
17,1,1.0692179203033447,4.0,8.0,with distraction,filtered,long,3.0,3.0,3.0,5.0,5.0,4.0,48
17,1,1.0770370960235596,4.0,9.0,with distraction,filtered,long,3.0,3.0,3.0,5.0,5.0,4.0,49
17,1,1.1180689334869385,5.0,1.0,with distraction,filtered,short,3.0,3.0,2.0,6.0,5.0,6.0,50
17,1,0.8028018474578857,5.0,2.0,with distraction,filtered,short,3.0,3.0,2.0,6.0,5.0,6.0,51
17,1,0.9463868141174316,5.0,3.0,with distraction,filtered,short,3.0,3.0,2.0,6.0,5.0,6.0,52
17,1,0.8122780323028564,5.0,4.0,with distraction,filtered,short,3.0,3.0,2.0,6.0,5.0,6.0,53
17,1,0.9315872192382812,5.0,5.0,with distraction,filtered,short,3.0,3.0,2.0,6.0,5.0,6.0,54
17,1,0.7111430168151855,5.0,6.0,with distraction,filtered,short,3.0,3.0,2.0,6.0,5.0,6.0,55
17,1,0.9399991035461426,5.0,7.0,with distraction,filtered,short,3.0,3.0,2.0,6.0,5.0,6.0,56
17,1,0.8050158023834229,5.0,8.0,with distraction,filtered,short,3.0,3.0,2.0,6.0,5.0,6.0,57
17,1,0.8009042739868164,5.0,9.0,with distraction,filtered,short,3.0,3.0,2.0,6.0,5.0,6.0,58
17,1,0.9409198760986328,5.0,10.0,with distraction,filtered,short,3.0,3.0,2.0,6.0,5.0,6.0,59
17,1,1.0597960948944092,6.0,1.0,with distraction,static,short,3.0,4.0,2.0,4.0,3.0,5.0,60
17,1,0.9445931911468506,6.0,2.0,with distraction,static,short,3.0,4.0,2.0,4.0,3.0,5.0,61
17,1,0.6844489574432373,6.0,3.0,with distraction,static,short,3.0,4.0,2.0,4.0,3.0,5.0,62
17,1,1.049147129058838,6.0,4.0,with distraction,static,short,3.0,4.0,2.0,4.0,3.0,5.0,63
17,1,0.815824031829834,6.0,5.0,with distraction,static,short,3.0,4.0,2.0,4.0,3.0,5.0,64
17,1,0.9362001419067384,6.0,6.0,with distraction,static,short,3.0,4.0,2.0,4.0,3.0,5.0,65
17,0,0.6858859062194824,6.0,7.0,with distraction,static,short,3.0,4.0,2.0,4.0,3.0,5.0,66
17,1,0.9532549381256104,6.0,8.0,with distraction,static,short,3.0,4.0,2.0,4.0,3.0,5.0,67
17,1,1.0956289768218994,6.0,9.0,with distraction,static,short,3.0,4.0,2.0,4.0,3.0,5.0,68
17,1,0.8154699802398682,6.0,10.0,with distraction,static,short,3.0,4.0,2.0,4.0,3.0,5.0,69
17,1,1.0802528858184814,7.0,1.0,with distraction,static,long,5.0,3.0,2.0,5.0,4.0,5.0,70
17,1,1.214504957199097,7.0,2.0,with distraction,static,long,5.0,3.0,2.0,5.0,4.0,5.0,71
17,1,1.104665756225586,7.0,3.0,with distraction,static,long,5.0,3.0,2.0,5.0,4.0,5.0,72
17,1,1.1172289848327637,7.0,4.0,with distraction,static,long,5.0,3.0,2.0,5.0,4.0,5.0,73
17,1,1.0868570804595947,7.0,5.0,with distraction,static,long,5.0,3.0,2.0,5.0,4.0,5.0,74
17,1,1.1224441528320312,7.0,6.0,with distraction,static,long,5.0,3.0,2.0,5.0,4.0,5.0,75
17,1,1.221912860870361,7.0,7.0,with distraction,static,long,5.0,3.0,2.0,5.0,4.0,5.0,76
17,1,1.080785036087036,7.0,8.0,with distraction,static,long,5.0,3.0,2.0,5.0,4.0,5.0,77
17,1,1.214306116104126,7.0,9.0,with distraction,static,long,5.0,3.0,2.0,5.0,4.0,5.0,78
17,1,1.2179152965545654,7.0,10.0,with distraction,static,long,5.0,3.0,2.0,5.0,4.0,5.0,79
17,1,0.9453468322753906,8.0,1.0,no distraction,none,long,4.0,4.0,1.0,1.0,1.0,1.0,80
17,1,0.8699648380279541,8.0,2.0,no distraction,none,long,4.0,4.0,1.0,1.0,1.0,1.0,81
17,1,0.9492020606994628,8.0,3.0,no distraction,none,long,4.0,4.0,1.0,1.0,1.0,1.0,82
17,1,1.150828838348389,8.0,4.0,no distraction,none,long,4.0,4.0,1.0,1.0,1.0,1.0,83
17,1,1.1317780017852783,8.0,5.0,no distraction,none,long,4.0,4.0,1.0,1.0,1.0,1.0,84
17,1,1.1546838283538818,8.0,6.0,no distraction,none,long,4.0,4.0,1.0,1.0,1.0,1.0,85
17,1,0.8150761127471924,8.0,7.0,no distraction,none,long,4.0,4.0,1.0,1.0,1.0,1.0,86
17,1,0.920041799545288,8.0,8.0,no distraction,none,long,4.0,4.0,1.0,1.0,1.0,1.0,87
17,1,0.7695918083190918,8.0,9.0,no distraction,none,long,4.0,4.0,1.0,1.0,1.0,1.0,88
17,1,0.8917710781097412,8.0,10.0,no distraction,none,long,4.0,4.0,1.0,1.0,1.0,1.0,89
17,1,0.8454179763793945,9.0,1.0,no distraction,none,short,4.0,4.0,1.0,1.0,1.0,1.0,90
17,1,0.6173350811004639,9.0,2.0,no distraction,none,short,4.0,4.0,1.0,1.0,1.0,1.0,91
17,1,0.6472148895263672,9.0,3.0,no distraction,none,short,4.0,4.0,1.0,1.0,1.0,1.0,92
17,1,0.6383051872253418,9.0,4.0,no distraction,none,short,4.0,4.0,1.0,1.0,1.0,1.0,93
17,1,0.5181789398193359,9.0,5.0,no distraction,none,short,4.0,4.0,1.0,1.0,1.0,1.0,94
17,1,0.6145641803741455,9.0,6.0,no distraction,none,short,4.0,4.0,1.0,1.0,1.0,1.0,95
17,1,0.8540749549865723,9.0,7.0,no distraction,none,short,4.0,4.0,1.0,1.0,1.0,1.0,96
17,1,0.5902080535888672,9.0,8.0,no distraction,none,short,4.0,4.0,1.0,1.0,1.0,1.0,97
17,1,0.7412102222442627,9.0,9.0,no distraction,none,short,4.0,4.0,1.0,1.0,1.0,1.0,98
17,1,0.558722734451294,9.0,10.0,no distraction,none,short,4.0,4.0,1.0,1.0,1.0,1.0,99
17,1,1.059770107269287,10.0,1.0,with distraction,none,long,4.0,4.0,1.0,1.0,1.0,1.0,100
17,1,3.76016902923584,10.0,2.0,with distraction,none,long,4.0,4.0,1.0,1.0,1.0,1.0,101
17,1,1.0740559101104736,10.0,4.0,with distraction,none,long,4.0,4.0,1.0,1.0,1.0,1.0,102
17,1,1.097397804260254,10.0,5.0,with distraction,none,long,4.0,4.0,1.0,1.0,1.0,1.0,103
17,1,1.067209005355835,10.0,6.0,with distraction,none,long,4.0,4.0,1.0,1.0,1.0,1.0,104
17,1,1.096719741821289,10.0,7.0,with distraction,none,long,4.0,4.0,1.0,1.0,1.0,1.0,105
17,1,1.0798470973968506,10.0,8.0,with distraction,none,long,4.0,4.0,1.0,1.0,1.0,1.0,106
17,1,1.071061134338379,10.0,9.0,with distraction,none,long,4.0,4.0,1.0,1.0,1.0,1.0,107
17,1,1.0719919204711914,10.0,10.0,with distraction,none,long,4.0,4.0,1.0,1.0,1.0,1.0,108
17,1,1.200531244277954,11.0,1.0,with distraction,none,short,4.0,4.0,1.0,1.0,1.0,1.0,109
17,1,0.9701850414276124,11.0,2.0,with distraction,none,short,4.0,4.0,1.0,1.0,1.0,1.0,110
17,1,0.8094160556793213,11.0,3.0,with distraction,none,short,4.0,4.0,1.0,1.0,1.0,1.0,111
17,1,0.9106409549713136,11.0,4.0,with distraction,none,short,4.0,4.0,1.0,1.0,1.0,1.0,112
17,1,0.6345310211181641,11.0,5.0,with distraction,none,short,4.0,4.0,1.0,1.0,1.0,1.0,113
17,1,0.8102388381958008,11.0,6.0,with distraction,none,short,4.0,4.0,1.0,1.0,1.0,1.0,114
17,1,0.9569010734558104,11.0,7.0,with distraction,none,short,4.0,4.0,1.0,1.0,1.0,1.0,115
17,1,0.9508779048919678,11.0,8.0,with distraction,none,short,4.0,4.0,1.0,1.0,1.0,1.0,116
17,1,1.0705749988555908,11.0,9.0,with distraction,none,short,4.0,4.0,1.0,1.0,1.0,1.0,117
17,1,0.9369850158691406,11.0,10.0,with distraction,none,short,4.0,4.0,1.0,1.0,1.0,1.0,118
4,1,0.8250770568847656,0.0,1.0,with distraction,filtered,short,6.0,7.0,2.0,3.0,2.0,1.0,1
4,1,0.8224389553070068,0.0,2.0,with distraction,filtered,short,6.0,7.0,2.0,3.0,2.0,1.0,2
4,1,0.8117430210113525,0.0,3.0,with distraction,filtered,short,6.0,7.0,2.0,3.0,2.0,1.0,3
4,1,0.701897144317627,0.0,4.0,with distraction,filtered,short,6.0,7.0,2.0,3.0,2.0,1.0,4
4,1,0.6758337020874023,0.0,5.0,with distraction,filtered,short,6.0,7.0,2.0,3.0,2.0,1.0,5
4,1,0.8050107955932617,0.0,6.0,with distraction,filtered,short,6.0,7.0,2.0,3.0,2.0,1.0,6
4,1,0.6983451843261719,0.0,7.0,with distraction,filtered,short,6.0,7.0,2.0,3.0,2.0,1.0,7
4,1,0.7002208232879639,0.0,8.0,with distraction,filtered,short,6.0,7.0,2.0,3.0,2.0,1.0,8
4,1,0.8304178714752197,0.0,9.0,with distraction,filtered,short,6.0,7.0,2.0,3.0,2.0,1.0,9
4,1,0.6687161922454834,0.0,10.0,with distraction,filtered,short,6.0,7.0,2.0,3.0,2.0,1.0,10
4,1,1.1979281902313232,1.0,1.0,with distraction,static,long,6.0,6.0,2.0,2.0,2.0,1.0,11
4,1,0.8027291297912598,1.0,2.0,with distraction,static,long,6.0,6.0,2.0,2.0,2.0,1.0,12
4,1,0.9362576007843018,1.0,3.0,with distraction,static,long,6.0,6.0,2.0,2.0,2.0,1.0,13
4,1,0.6668779850006104,1.0,4.0,with distraction,static,long,6.0,6.0,2.0,2.0,2.0,1.0,14
4,1,0.9422447681427002,1.0,5.0,with distraction,static,long,6.0,6.0,2.0,2.0,2.0,1.0,15
4,1,1.0665667057037354,1.0,6.0,with distraction,static,long,6.0,6.0,2.0,2.0,2.0,1.0,16
4,1,0.9477379322052002,1.0,7.0,with distraction,static,long,6.0,6.0,2.0,2.0,2.0,1.0,17
4,1,0.8450400829315186,1.0,8.0,with distraction,static,long,6.0,6.0,2.0,2.0,2.0,1.0,18
4,1,1.0880508422851562,1.0,9.0,with distraction,static,long,6.0,6.0,2.0,2.0,2.0,1.0,19
4,1,0.8068861961364746,1.0,10.0,with distraction,static,long,6.0,6.0,2.0,2.0,2.0,1.0,20
4,1,1.0685219764709473,2.0,1.0,with distraction,none,long,4.0,4.0,1.0,1.0,1.0,1.0,21
4,1,1.067131280899048,2.0,2.0,with distraction,none,long,4.0,4.0,1.0,1.0,1.0,1.0,22
4,1,0.8031418323516846,2.0,3.0,with distraction,none,long,4.0,4.0,1.0,1.0,1.0,1.0,23
4,1,0.8315308094024658,2.0,4.0,with distraction,none,long,4.0,4.0,1.0,1.0,1.0,1.0,24
4,1,0.8017857074737549,2.0,5.0,with distraction,none,long,4.0,4.0,1.0,1.0,1.0,1.0,25
4,1,0.7744219303131104,2.0,6.0,with distraction,none,long,4.0,4.0,1.0,1.0,1.0,1.0,26
4,1,1.0447728633880615,2.0,7.0,with distraction,none,long,4.0,4.0,1.0,1.0,1.0,1.0,27
4,1,0.7714669704437256,2.0,8.0,with distraction,none,long,4.0,4.0,1.0,1.0,1.0,1.0,28
4,1,0.7679591178894043,2.0,9.0,with distraction,none,long,4.0,4.0,1.0,1.0,1.0,1.0,29
4,1,0.9438209533691406,2.0,10.0,with distraction,none,long,4.0,4.0,1.0,1.0,1.0,1.0,30
4,1,0.6059882640838623,3.0,1.0,no distraction,filtered,long,3.0,3.0,5.0,5.0,5.0,2.0,31
4,1,0.5657501220703125,3.0,2.0,no distraction,filtered,long,3.0,3.0,5.0,5.0,5.0,2.0,32
4,1,0.6481101512908936,3.0,3.0,no distraction,filtered,long,3.0,3.0,5.0,5.0,5.0,2.0,33
4,1,0.8680081367492676,3.0,4.0,no distraction,filtered,long,3.0,3.0,5.0,5.0,5.0,2.0,34
4,1,0.6235148906707764,3.0,5.0,no distraction,filtered,long,3.0,3.0,5.0,5.0,5.0,2.0,35
4,1,0.6395611763000488,3.0,6.0,no distraction,filtered,long,3.0,3.0,5.0,5.0,5.0,2.0,36
4,1,0.7409300804138184,3.0,7.0,no distraction,filtered,long,3.0,3.0,5.0,5.0,5.0,2.0,37
4,1,0.6285419464111328,3.0,8.0,no distraction,filtered,long,3.0,3.0,5.0,5.0,5.0,2.0,38
4,1,0.6594691276550293,3.0,9.0,no distraction,filtered,long,3.0,3.0,5.0,5.0,5.0,2.0,39
4,1,0.764397144317627,3.0,10.0,no distraction,filtered,long,3.0,3.0,5.0,5.0,5.0,2.0,40
4,1,0.5971188545227051,4.0,1.0,no distraction,none,short,4.0,4.0,1.0,1.0,1.0,1.0,41
4,1,0.4490749835968017,4.0,2.0,no distraction,none,short,4.0,4.0,1.0,1.0,1.0,1.0,42
4,1,0.4641470909118652,4.0,3.0,no distraction,none,short,4.0,4.0,1.0,1.0,1.0,1.0,43
4,1,0.5607130527496338,4.0,4.0,no distraction,none,short,4.0,4.0,1.0,1.0,1.0,1.0,44
4,1,0.4844522476196289,4.0,5.0,no distraction,none,short,4.0,4.0,1.0,1.0,1.0,1.0,45
4,1,0.6241660118103027,4.0,6.0,no distraction,none,short,4.0,4.0,1.0,1.0,1.0,1.0,46
4,1,0.4016273021697998,4.0,7.0,no distraction,none,short,4.0,4.0,1.0,1.0,1.0,1.0,47
4,1,0.5821528434753418,4.0,8.0,no distraction,none,short,4.0,4.0,1.0,1.0,1.0,1.0,48
4,1,1.0821037292480469,4.0,9.0,no distraction,none,short,4.0,4.0,1.0,1.0,1.0,1.0,49
4,1,0.6196730136871338,4.0,10.0,no distraction,none,short,4.0,4.0,1.0,1.0,1.0,1.0,50
4,1,0.8124468326568604,5.0,1.0,with distraction,static,short,7.0,7.0,1.0,2.0,2.0,1.0,51
4,1,0.5891010761260986,5.0,2.0,with distraction,static,short,7.0,7.0,1.0,2.0,2.0,1.0,52
4,1,0.7112288475036621,5.0,3.0,with distraction,static,short,7.0,7.0,1.0,2.0,2.0,1.0,53
4,1,0.685683012008667,5.0,4.0,with distraction,static,short,7.0,7.0,1.0,2.0,2.0,1.0,54
4,1,0.8353867530822754,5.0,5.0,with distraction,static,short,7.0,7.0,1.0,2.0,2.0,1.0,55
4,1,0.7770040035247803,5.0,6.0,with distraction,static,short,7.0,7.0,1.0,2.0,2.0,1.0,56
4,1,0.6334080696105957,5.0,7.0,with distraction,static,short,7.0,7.0,1.0,2.0,2.0,1.0,57
4,1,0.9542968273162842,5.0,8.0,with distraction,static,short,7.0,7.0,1.0,2.0,2.0,1.0,58
4,1,0.8112151622772217,5.0,9.0,with distraction,static,short,7.0,7.0,1.0,2.0,2.0,1.0,59
4,1,0.6796550750732422,5.0,10.0,with distraction,static,short,7.0,7.0,1.0,2.0,2.0,1.0,60
4,1,0.5783710479736328,6.0,1.0,no distraction,filtered,short,7.0,7.0,1.0,3.0,2.0,1.0,61
4,1,0.5452980995178223,6.0,2.0,no distraction,filtered,short,7.0,7.0,1.0,3.0,2.0,1.0,62
4,1,0.5573930740356445,6.0,3.0,no distraction,filtered,short,7.0,7.0,1.0,3.0,2.0,1.0,63
4,1,0.5483200550079346,6.0,4.0,no distraction,filtered,short,7.0,7.0,1.0,3.0,2.0,1.0,64
4,1,0.4822421073913574,6.0,5.0,no distraction,filtered,short,7.0,7.0,1.0,3.0,2.0,1.0,65
4,1,0.6864922046661377,6.0,6.0,no distraction,filtered,short,7.0,7.0,1.0,3.0,2.0,1.0,66
4,1,0.7507150173187256,6.0,7.0,no distraction,filtered,short,7.0,7.0,1.0,3.0,2.0,1.0,67
4,1,0.5332448482513428,6.0,8.0,no distraction,filtered,short,7.0,7.0,1.0,3.0,2.0,1.0,68
4,1,0.498147964477539,6.0,9.0,no distraction,filtered,short,7.0,7.0,1.0,3.0,2.0,1.0,69
4,1,0.5341072082519531,6.0,10.0,no distraction,filtered,short,7.0,7.0,1.0,3.0,2.0,1.0,70
4,1,0.5976419448852539,7.0,1.0,no distraction,none,long,4.0,4.0,1.0,1.0,1.0,1.0,71
4,1,0.6145880222320557,7.0,2.0,no distraction,none,long,4.0,4.0,1.0,1.0,1.0,1.0,72
4,1,0.5612349510192871,7.0,3.0,no distraction,none,long,4.0,4.0,1.0,1.0,1.0,1.0,73
4,1,0.6141438484191895,7.0,4.0,no distraction,none,long,4.0,4.0,1.0,1.0,1.0,1.0,74
4,1,0.6333560943603516,7.0,5.0,no distraction,none,long,4.0,4.0,1.0,1.0,1.0,1.0,75
4,1,0.6897850036621094,7.0,6.0,no distraction,none,long,4.0,4.0,1.0,1.0,1.0,1.0,76
4,1,0.7439141273498535,7.0,7.0,no distraction,none,long,4.0,4.0,1.0,1.0,1.0,1.0,77
4,1,0.6607260704040527,7.0,8.0,no distraction,none,long,4.0,4.0,1.0,1.0,1.0,1.0,78
4,1,0.8161511421203613,7.0,9.0,no distraction,none,long,4.0,4.0,1.0,1.0,1.0,1.0,79
4,1,0.6608548164367676,7.0,10.0,no distraction,none,long,4.0,4.0,1.0,1.0,1.0,1.0,80
4,1,0.8088479042053223,8.0,1.0,with distraction,none,short,4.0,4.0,1.0,1.0,1.0,1.0,81
4,1,0.8137421607971191,8.0,2.0,with distraction,none,short,4.0,4.0,1.0,1.0,1.0,1.0,82
4,1,0.6539618968963623,8.0,3.0,with distraction,none,short,4.0,4.0,1.0,1.0,1.0,1.0,83
4,1,0.668065071105957,8.0,4.0,with distraction,none,short,4.0,4.0,1.0,1.0,1.0,1.0,84
4,1,0.7811279296875,8.0,5.0,with distraction,none,short,4.0,4.0,1.0,1.0,1.0,1.0,85
4,1,0.6931562423706055,8.0,6.0,with distraction,none,short,4.0,4.0,1.0,1.0,1.0,1.0,86
4,1,0.6722629070281982,8.0,7.0,with distraction,none,short,4.0,4.0,1.0,1.0,1.0,1.0,87
4,1,0.80043625831604,8.0,8.0,with distraction,none,short,4.0,4.0,1.0,1.0,1.0,1.0,88
4,1,0.9038033485412598,8.0,9.0,with distraction,none,short,4.0,4.0,1.0,1.0,1.0,1.0,89
4,1,0.7005419731140137,8.0,10.0,with distraction,none,short,4.0,4.0,1.0,1.0,1.0,1.0,90
4,1,0.5768299102783203,9.0,1.0,no distraction,static,short,7.0,7.0,2.0,3.0,2.0,2.0,91
4,1,0.557199239730835,9.0,2.0,no distraction,static,short,7.0,7.0,2.0,3.0,2.0,2.0,92
4,1,0.5485701560974121,9.0,3.0,no distraction,static,short,7.0,7.0,2.0,3.0,2.0,2.0,93
4,1,0.4530279636383056,9.0,4.0,no distraction,static,short,7.0,7.0,2.0,3.0,2.0,2.0,94
4,1,0.5771739482879639,9.0,5.0,no distraction,static,short,7.0,7.0,2.0,3.0,2.0,2.0,95
4,1,0.6127622127532959,9.0,6.0,no distraction,static,short,7.0,7.0,2.0,3.0,2.0,2.0,96
4,1,0.5685329437255859,9.0,7.0,no distraction,static,short,7.0,7.0,2.0,3.0,2.0,2.0,97
4,1,0.4546728134155273,9.0,8.0,no distraction,static,short,7.0,7.0,2.0,3.0,2.0,2.0,98
4,1,0.45247483253479,9.0,9.0,no distraction,static,short,7.0,7.0,2.0,3.0,2.0,2.0,99
4,1,0.5793139934539795,9.0,10.0,no distraction,static,short,7.0,7.0,2.0,3.0,2.0,2.0,100
4,1,0.8107988834381104,10.0,1.0,with distraction,filtered,long,5.0,5.0,1.0,2.0,2.0,2.0,101
4,1,0.7970349788665771,10.0,2.0,with distraction,filtered,long,5.0,5.0,1.0,2.0,2.0,2.0,102
4,1,0.796950101852417,10.0,3.0,with distraction,filtered,long,5.0,5.0,1.0,2.0,2.0,2.0,103
4,1,0.8115239143371582,10.0,4.0,with distraction,filtered,long,5.0,5.0,1.0,2.0,2.0,2.0,104
4,1,0.8144869804382324,10.0,5.0,with distraction,filtered,long,5.0,5.0,1.0,2.0,2.0,2.0,105
4,1,0.7969808578491211,10.0,6.0,with distraction,filtered,long,5.0,5.0,1.0,2.0,2.0,2.0,106
4,1,0.7975318431854248,10.0,7.0,with distraction,filtered,long,5.0,5.0,1.0,2.0,2.0,2.0,107
4,1,0.7979648113250732,10.0,8.0,with distraction,filtered,long,5.0,5.0,1.0,2.0,2.0,2.0,108
4,1,0.77286696434021,10.0,9.0,with distraction,filtered,long,5.0,5.0,1.0,2.0,2.0,2.0,109
4,1,0.905026912689209,10.0,10.0,with distraction,filtered,long,5.0,5.0,1.0,2.0,2.0,2.0,110
4,1,0.654803991317749,11.0,1.0,no distraction,static,long,2.0,3.0,2.0,3.0,3.0,2.0,111
4,1,0.7608461380004883,11.0,2.0,no distraction,static,long,2.0,3.0,2.0,3.0,3.0,2.0,112
4,1,0.6840689182281494,11.0,3.0,no distraction,static,long,2.0,3.0,2.0,3.0,3.0,2.0,113
4,1,0.6728088855743408,11.0,4.0,no distraction,static,long,2.0,3.0,2.0,3.0,3.0,2.0,114
4,1,0.5724351406097412,11.0,5.0,no distraction,static,long,2.0,3.0,2.0,3.0,3.0,2.0,115
4,1,0.6434438228607178,11.0,6.0,no distraction,static,long,2.0,3.0,2.0,3.0,3.0,2.0,116
4,1,0.6873910427093506,11.0,7.0,no distraction,static,long,2.0,3.0,2.0,3.0,3.0,2.0,117
4,1,0.605050802230835,11.0,8.0,no distraction,static,long,2.0,3.0,2.0,3.0,3.0,2.0,118
4,1,0.6883249282836914,11.0,9.0,no distraction,static,long,2.0,3.0,2.0,3.0,3.0,2.0,119
4,1,0.6602869033813477,11.0,10.0,no distraction,static,long,2.0,3.0,2.0,3.0,3.0,2.0,120
15,1,0.5260829925537109,0.0,1.0,no distraction,static,long,4.0,1.0,5.0,3.0,6.0,3.0,1
15,1,1.3179597854614258,0.0,2.0,no distraction,static,long,4.0,1.0,5.0,3.0,6.0,3.0,2
15,1,0.645798921585083,0.0,3.0,no distraction,static,long,4.0,1.0,5.0,3.0,6.0,3.0,3
15,1,0.6251130104064941,0.0,4.0,no distraction,static,long,4.0,1.0,5.0,3.0,6.0,3.0,4
15,1,0.6803581714630127,0.0,5.0,no distraction,static,long,4.0,1.0,5.0,3.0,6.0,3.0,5
15,1,0.6417319774627686,0.0,6.0,no distraction,static,long,4.0,1.0,5.0,3.0,6.0,3.0,6
15,1,0.5298569202423096,0.0,7.0,no distraction,static,long,4.0,1.0,5.0,3.0,6.0,3.0,7
15,1,0.4258050918579101,0.0,8.0,no distraction,static,long,4.0,1.0,5.0,3.0,6.0,3.0,8
15,1,0.9348020553588868,0.0,9.0,no distraction,static,long,4.0,1.0,5.0,3.0,6.0,3.0,9
15,1,0.5738608837127686,0.0,10.0,no distraction,static,long,4.0,1.0,5.0,3.0,6.0,3.0,10
15,1,0.9606060981750488,1.0,1.0,with distraction,static,long,6.0,3.0,3.0,2.0,2.0,1.0,11
15,1,0.9779336452484132,1.0,2.0,with distraction,static,long,6.0,3.0,3.0,2.0,2.0,1.0,12
15,1,0.9535198211669922,1.0,3.0,with distraction,static,long,6.0,3.0,3.0,2.0,2.0,1.0,13
15,1,0.824516773223877,1.0,4.0,with distraction,static,long,6.0,3.0,3.0,2.0,2.0,1.0,14
15,1,0.9593048095703124,1.0,5.0,with distraction,static,long,6.0,3.0,3.0,2.0,2.0,1.0,15
15,1,1.0755698680877686,1.0,6.0,with distraction,static,long,6.0,3.0,3.0,2.0,2.0,1.0,16
15,1,1.1458561420440674,1.0,7.0,with distraction,static,long,6.0,3.0,3.0,2.0,2.0,1.0,17
15,1,0.8182802200317383,1.0,8.0,with distraction,static,long,6.0,3.0,3.0,2.0,2.0,1.0,18
15,1,0.792252779006958,1.0,10.0,with distraction,static,long,6.0,3.0,3.0,2.0,2.0,1.0,19
15,1,1.1202998161315918,2.0,1.0,with distraction,none,long,4.0,4.0,1.0,1.0,1.0,1.0,20
15,1,0.673961877822876,2.0,2.0,with distraction,none,long,4.0,4.0,1.0,1.0,1.0,1.0,21
15,1,0.677886962890625,2.0,3.0,with distraction,none,long,4.0,4.0,1.0,1.0,1.0,1.0,22
15,1,0.9480581283569336,2.0,4.0,with distraction,none,long,4.0,4.0,1.0,1.0,1.0,1.0,23
15,1,1.073470115661621,2.0,5.0,with distraction,none,long,4.0,4.0,1.0,1.0,1.0,1.0,24
15,1,0.6788299083709717,2.0,6.0,with distraction,none,long,4.0,4.0,1.0,1.0,1.0,1.0,25
15,1,0.8103101253509521,2.0,7.0,with distraction,none,long,4.0,4.0,1.0,1.0,1.0,1.0,26
15,1,0.9493460655212402,2.0,8.0,with distraction,none,long,4.0,4.0,1.0,1.0,1.0,1.0,27
15,1,0.9412872791290284,2.0,9.0,with distraction,none,long,4.0,4.0,1.0,1.0,1.0,1.0,28
15,1,1.0407350063323977,2.0,10.0,with distraction,none,long,4.0,4.0,1.0,1.0,1.0,1.0,29
15,1,0.9416570663452148,3.0,1.0,with distraction,filtered,short,6.0,4.0,2.0,4.0,3.0,2.0,30
15,1,0.6693828105926514,3.0,2.0,with distraction,filtered,short,6.0,4.0,2.0,4.0,3.0,2.0,31
15,1,0.6811299324035645,3.0,3.0,with distraction,filtered,short,6.0,4.0,2.0,4.0,3.0,2.0,32
15,1,0.9162039756774902,3.0,4.0,with distraction,filtered,short,6.0,4.0,2.0,4.0,3.0,2.0,33
15,1,0.8152391910552979,3.0,5.0,with distraction,filtered,short,6.0,4.0,2.0,4.0,3.0,2.0,34
15,1,0.951874017715454,3.0,6.0,with distraction,filtered,short,6.0,4.0,2.0,4.0,3.0,2.0,35
15,1,0.6722447872161865,3.0,7.0,with distraction,filtered,short,6.0,4.0,2.0,4.0,3.0,2.0,36
15,1,0.6415231227874756,3.0,8.0,with distraction,filtered,short,6.0,4.0,2.0,4.0,3.0,2.0,37
15,1,0.6567039489746094,3.0,9.0,with distraction,filtered,short,6.0,4.0,2.0,4.0,3.0,2.0,38
15,1,0.8153977394104004,3.0,10.0,with distraction,filtered,short,6.0,4.0,2.0,4.0,3.0,2.0,39
15,1,0.9390242099761964,4.0,1.0,with distraction,filtered,long,6.0,6.0,2.0,5.0,3.0,4.0,40
15,1,0.6789660453796387,4.0,2.0,with distraction,filtered,long,6.0,6.0,2.0,5.0,3.0,4.0,41
15,1,0.8156118392944336,4.0,3.0,with distraction,filtered,long,6.0,6.0,2.0,5.0,3.0,4.0,42
15,1,0.8533909320831299,4.0,4.0,with distraction,filtered,long,6.0,6.0,2.0,5.0,3.0,4.0,43
15,1,0.9626681804656982,4.0,5.0,with distraction,filtered,long,6.0,6.0,2.0,5.0,3.0,4.0,44
15,1,1.0654897689819336,4.0,6.0,with distraction,filtered,long,6.0,6.0,2.0,5.0,3.0,4.0,45
15,1,0.8389160633087158,4.0,7.0,with distraction,filtered,long,6.0,6.0,2.0,5.0,3.0,4.0,46
15,1,0.8478660583496094,4.0,8.0,with distraction,filtered,long,6.0,6.0,2.0,5.0,3.0,4.0,47
15,1,0.8055810928344727,4.0,9.0,with distraction,filtered,long,6.0,6.0,2.0,5.0,3.0,4.0,48
15,1,0.7802879810333252,4.0,10.0,with distraction,filtered,long,6.0,6.0,2.0,5.0,3.0,4.0,49
15,1,0.8269641399383545,5.0,1.0,no distraction,filtered,long,1.0,1.0,2.0,5.0,3.0,2.0,50
15,1,0.7047770023345947,5.0,2.0,no distraction,filtered,long,1.0,1.0,2.0,5.0,3.0,2.0,51
15,1,0.7121891975402832,5.0,3.0,no distraction,filtered,long,1.0,1.0,2.0,5.0,3.0,2.0,52
15,1,0.560776948928833,5.0,4.0,no distraction,filtered,long,1.0,1.0,2.0,5.0,3.0,2.0,53
15,1,0.7067348957061768,5.0,5.0,no distraction,filtered,long,1.0,1.0,2.0,5.0,3.0,2.0,54
15,1,0.7955279350280762,5.0,6.0,no distraction,filtered,long,1.0,1.0,2.0,5.0,3.0,2.0,55
15,1,0.8340718746185303,5.0,8.0,no distraction,filtered,long,1.0,1.0,2.0,5.0,3.0,2.0,56
15,1,0.9093103408813475,5.0,9.0,no distraction,filtered,long,1.0,1.0,2.0,5.0,3.0,2.0,57
15,1,0.6872997283935547,5.0,10.0,no distraction,filtered,long,1.0,1.0,2.0,5.0,3.0,2.0,58
15,1,0.7580139636993408,6.0,1.0,no distraction,none,short,4.0,4.0,1.0,1.0,1.0,1.0,59
15,1,1.3012299537658691,6.0,2.0,no distraction,none,short,4.0,4.0,1.0,1.0,1.0,1.0,60
15,1,0.6003751754760742,6.0,3.0,no distraction,none,short,4.0,4.0,1.0,1.0,1.0,1.0,61
15,1,0.6112818717956543,6.0,4.0,no distraction,none,short,4.0,4.0,1.0,1.0,1.0,1.0,62
15,1,0.5482890605926514,6.0,5.0,no distraction,none,short,4.0,4.0,1.0,1.0,1.0,1.0,63
15,1,0.4373440742492676,6.0,6.0,no distraction,none,short,4.0,4.0,1.0,1.0,1.0,1.0,64
15,1,0.4922831058502197,6.0,7.0,no distraction,none,short,4.0,4.0,1.0,1.0,1.0,1.0,65
15,1,0.466536283493042,6.0,8.0,no distraction,none,short,4.0,4.0,1.0,1.0,1.0,1.0,66
15,1,0.7403111457824707,6.0,9.0,no distraction,none,short,4.0,4.0,1.0,1.0,1.0,1.0,67
15,1,0.6576180458068848,6.0,10.0,no distraction,none,short,4.0,4.0,1.0,1.0,1.0,1.0,68
15,1,0.8222620487213135,7.0,1.0,with distraction,none,short,4.0,4.0,1.0,1.0,1.0,1.0,69
15,1,0.6475999355316162,7.0,2.0,with distraction,none,short,4.0,4.0,1.0,1.0,1.0,1.0,70
15,1,0.6563761234283447,7.0,3.0,with distraction,none,short,4.0,4.0,1.0,1.0,1.0,1.0,71
15,1,0.7122068405151367,7.0,4.0,with distraction,none,short,4.0,4.0,1.0,1.0,1.0,1.0,72
15,1,0.8056838512420654,7.0,5.0,with distraction,none,short,4.0,4.0,1.0,1.0,1.0,1.0,73
15,1,0.6815299987792969,7.0,6.0,with distraction,none,short,4.0,4.0,1.0,1.0,1.0,1.0,74
15,1,0.8174412250518799,7.0,7.0,with distraction,none,short,4.0,4.0,1.0,1.0,1.0,1.0,75
15,1,0.9167318344116212,7.0,8.0,with distraction,none,short,4.0,4.0,1.0,1.0,1.0,1.0,76
15,1,0.8214941024780273,7.0,9.0,with distraction,none,short,4.0,4.0,1.0,1.0,1.0,1.0,77
15,1,0.8087077140808105,7.0,10.0,with distraction,none,short,4.0,4.0,1.0,1.0,1.0,1.0,78
15,1,0.6536257266998291,8.0,1.0,no distraction,none,long,4.0,4.0,1.0,1.0,1.0,1.0,79
15,1,0.5858418941497803,8.0,2.0,no distraction,none,long,4.0,4.0,1.0,1.0,1.0,1.0,80
15,1,0.6554520130157471,8.0,4.0,no distraction,none,long,4.0,4.0,1.0,1.0,1.0,1.0,81
15,1,0.6959097385406494,8.0,5.0,no distraction,none,long,4.0,4.0,1.0,1.0,1.0,1.0,82
15,1,1.0664019584655762,8.0,6.0,no distraction,none,long,4.0,4.0,1.0,1.0,1.0,1.0,83
15,1,1.163703680038452,8.0,7.0,no distraction,none,long,4.0,4.0,1.0,1.0,1.0,1.0,84
15,1,0.8636462688446045,8.0,8.0,no distraction,none,long,4.0,4.0,1.0,1.0,1.0,1.0,85
15,1,0.8319308757781982,8.0,9.0,no distraction,none,long,4.0,4.0,1.0,1.0,1.0,1.0,86
15,1,0.6809132099151611,8.0,10.0,no distraction,none,long,4.0,4.0,1.0,1.0,1.0,1.0,87
15,1,0.5468869209289551,9.0,1.0,no distraction,static,short,6.0,6.0,2.0,3.0,2.0,2.0,88
15,1,0.9368371963500975,9.0,2.0,no distraction,static,short,6.0,6.0,2.0,3.0,2.0,2.0,89
15,1,0.8929421901702881,9.0,3.0,no distraction,static,short,6.0,6.0,2.0,3.0,2.0,2.0,90
15,1,0.4673740863800049,9.0,4.0,no distraction,static,short,6.0,6.0,2.0,3.0,2.0,2.0,91
15,1,0.5925121307373047,9.0,5.0,no distraction,static,short,6.0,6.0,2.0,3.0,2.0,2.0,92
15,1,0.6470828056335449,9.0,6.0,no distraction,static,short,6.0,6.0,2.0,3.0,2.0,2.0,93
15,1,0.5438899993896484,9.0,7.0,no distraction,static,short,6.0,6.0,2.0,3.0,2.0,2.0,94
15,1,0.5734989643096924,9.0,8.0,no distraction,static,short,6.0,6.0,2.0,3.0,2.0,2.0,95
15,1,0.5817379951477051,9.0,9.0,no distraction,static,short,6.0,6.0,2.0,3.0,2.0,2.0,96
15,1,0.5997140407562256,9.0,10.0,no distraction,static,short,6.0,6.0,2.0,3.0,2.0,2.0,97
15,1,0.8225879669189453,10.0,1.0,with distraction,static,short,6.0,5.0,2.0,4.0,3.0,2.0,98
15,1,0.8229832649230957,10.0,2.0,with distraction,static,short,6.0,5.0,2.0,4.0,3.0,2.0,99
15,1,0.8244209289550781,10.0,3.0,with distraction,static,short,6.0,5.0,2.0,4.0,3.0,2.0,100
15,1,0.8150498867034912,10.0,4.0,with distraction,static,short,6.0,5.0,2.0,4.0,3.0,2.0,101
15,1,0.8139328956604004,10.0,5.0,with distraction,static,short,6.0,5.0,2.0,4.0,3.0,2.0,102
15,1,0.8227531909942627,10.0,6.0,with distraction,static,short,6.0,5.0,2.0,4.0,3.0,2.0,103
15,1,1.0633690357208252,10.0,7.0,with distraction,static,short,6.0,5.0,2.0,4.0,3.0,2.0,104
15,1,0.8190011978149414,10.0,8.0,with distraction,static,short,6.0,5.0,2.0,4.0,3.0,2.0,105
15,1,0.9320070743560792,10.0,9.0,with distraction,static,short,6.0,5.0,2.0,4.0,3.0,2.0,106
15,1,0.82240891456604,10.0,10.0,with distraction,static,short,6.0,5.0,2.0,4.0,3.0,2.0,107
15,1,0.5798170566558838,11.0,1.0,no distraction,filtered,short,6.0,7.0,1.0,4.0,4.0,3.0,108
15,1,0.5690908432006836,11.0,2.0,no distraction,filtered,short,6.0,7.0,1.0,4.0,4.0,3.0,109
15,1,0.7513527870178223,11.0,3.0,no distraction,filtered,short,6.0,7.0,1.0,4.0,4.0,3.0,110
15,1,0.6869089603424072,11.0,4.0,no distraction,filtered,short,6.0,7.0,1.0,4.0,4.0,3.0,111
15,1,0.693809986114502,11.0,5.0,no distraction,filtered,short,6.0,7.0,1.0,4.0,4.0,3.0,112
15,1,0.563194751739502,11.0,6.0,no distraction,filtered,short,6.0,7.0,1.0,4.0,4.0,3.0,113
15,1,0.6486687660217285,11.0,7.0,no distraction,filtered,short,6.0,7.0,1.0,4.0,4.0,3.0,114
15,1,0.6524829864501953,11.0,9.0,no distraction,filtered,short,6.0,7.0,1.0,4.0,4.0,3.0,115
15,1,0.5800831317901611,11.0,10.0,no distraction,filtered,short,6.0,7.0,1.0,4.0,4.0,3.0,116
20,1,0.7424161434173584,0.0,1.0,with distraction,static,long,5.0,6.0,3.0,4.0,5.0,3.0,1
20,1,0.7974541187286377,0.0,2.0,with distraction,static,long,5.0,6.0,3.0,4.0,5.0,3.0,2
20,1,0.7129180431365967,0.0,3.0,with distraction,static,long,5.0,6.0,3.0,4.0,5.0,3.0,3
20,1,0.8126897811889648,0.0,4.0,with distraction,static,long,5.0,6.0,3.0,4.0,5.0,3.0,4
20,1,0.77229905128479,0.0,5.0,with distraction,static,long,5.0,6.0,3.0,4.0,5.0,3.0,5
20,1,0.7059550285339355,0.0,6.0,with distraction,static,long,5.0,6.0,3.0,4.0,5.0,3.0,6
20,1,0.81253981590271,0.0,7.0,with distraction,static,long,5.0,6.0,3.0,4.0,5.0,3.0,7
20,1,0.9593369960784912,0.0,8.0,with distraction,static,long,5.0,6.0,3.0,4.0,5.0,3.0,8
20,1,0.6571090221405029,0.0,9.0,with distraction,static,long,5.0,6.0,3.0,4.0,5.0,3.0,9
20,1,0.686103105545044,0.0,10.0,with distraction,static,long,5.0,6.0,3.0,4.0,5.0,3.0,10
20,1,0.8305568695068359,1.0,1.0,with distraction,none,long,4.0,4.0,1.0,1.0,1.0,1.0,11
20,1,0.8066790103912354,1.0,2.0,with distraction,none,long,4.0,4.0,1.0,1.0,1.0,1.0,12
20,1,1.1063239574432373,1.0,3.0,with distraction,none,long,4.0,4.0,1.0,1.0,1.0,1.0,13
20,1,0.9474718570709229,1.0,4.0,with distraction,none,long,4.0,4.0,1.0,1.0,1.0,1.0,14
20,1,0.8530690670013428,1.0,5.0,with distraction,none,long,4.0,4.0,1.0,1.0,1.0,1.0,15
20,1,0.8465557098388672,1.0,6.0,with distraction,none,long,4.0,4.0,1.0,1.0,1.0,1.0,16
20,1,0.8064827919006348,1.0,7.0,with distraction,none,long,4.0,4.0,1.0,1.0,1.0,1.0,17
20,1,0.9777772426605223,1.0,8.0,with distraction,none,long,4.0,4.0,1.0,1.0,1.0,1.0,18
20,1,0.9152920246124268,1.0,9.0,with distraction,none,long,4.0,4.0,1.0,1.0,1.0,1.0,19
20,1,0.8029587268829346,2.0,1.0,with distraction,none,short,4.0,4.0,1.0,1.0,1.0,1.0,20
20,1,0.8112070560455322,2.0,2.0,with distraction,none,short,4.0,4.0,1.0,1.0,1.0,1.0,21
20,1,1.1093931198120115,2.0,3.0,with distraction,none,short,4.0,4.0,1.0,1.0,1.0,1.0,22
20,1,0.946025848388672,2.0,4.0,with distraction,none,short,4.0,4.0,1.0,1.0,1.0,1.0,23
20,1,0.9094529151916504,2.0,5.0,with distraction,none,short,4.0,4.0,1.0,1.0,1.0,1.0,24
20,1,0.807542085647583,2.0,6.0,with distraction,none,short,4.0,4.0,1.0,1.0,1.0,1.0,25
20,1,0.828502893447876,2.0,7.0,with distraction,none,short,4.0,4.0,1.0,1.0,1.0,1.0,26
20,1,0.8151388168334961,2.0,8.0,with distraction,none,short,4.0,4.0,1.0,1.0,1.0,1.0,27
20,1,0.8033096790313721,2.0,9.0,with distraction,none,short,4.0,4.0,1.0,1.0,1.0,1.0,28
20,1,0.9451179504394532,2.0,10.0,with distraction,none,short,4.0,4.0,1.0,1.0,1.0,1.0,29
20,1,0.685034990310669,3.0,1.0,no distraction,static,long,3.0,2.0,5.0,2.0,4.0,2.0,30
20,1,0.6979761123657227,3.0,2.0,no distraction,static,long,3.0,2.0,5.0,2.0,4.0,2.0,31
20,1,0.6587510108947754,3.0,3.0,no distraction,static,long,3.0,2.0,5.0,2.0,4.0,2.0,32
20,1,0.661419153213501,3.0,4.0,no distraction,static,long,3.0,2.0,5.0,2.0,4.0,2.0,33
20,1,0.6402320861816406,3.0,5.0,no distraction,static,long,3.0,2.0,5.0,2.0,4.0,2.0,34
20,1,0.6441757678985596,3.0,6.0,no distraction,static,long,3.0,2.0,5.0,2.0,4.0,2.0,35
20,1,0.7365779876708984,3.0,7.0,no distraction,static,long,3.0,2.0,5.0,2.0,4.0,2.0,36
20,1,0.7088949680328369,3.0,8.0,no distraction,static,long,3.0,2.0,5.0,2.0,4.0,2.0,37
20,1,0.6520271301269531,3.0,9.0,no distraction,static,long,3.0,2.0,5.0,2.0,4.0,2.0,38
20,1,0.6868300437927246,3.0,10.0,no distraction,static,long,3.0,2.0,5.0,2.0,4.0,2.0,39
20,1,0.8346240520477295,4.0,1.0,with distraction,filtered,short,4.0,4.0,1.0,1.0,1.0,1.0,40
20,1,0.7729249000549316,4.0,2.0,with distraction,filtered,short,4.0,4.0,1.0,1.0,1.0,1.0,41
20,1,0.8074898719787598,4.0,3.0,with distraction,filtered,short,4.0,4.0,1.0,1.0,1.0,1.0,42
20,1,0.8266458511352539,4.0,4.0,with distraction,filtered,short,4.0,4.0,1.0,1.0,1.0,1.0,43
20,1,0.8398582935333252,4.0,5.0,with distraction,filtered,short,4.0,4.0,1.0,1.0,1.0,1.0,44
20,1,0.8364589214324951,4.0,6.0,with distraction,filtered,short,4.0,4.0,1.0,1.0,1.0,1.0,45
20,1,0.8078179359436035,4.0,7.0,with distraction,filtered,short,4.0,4.0,1.0,1.0,1.0,1.0,46
20,1,0.948544979095459,4.0,8.0,with distraction,filtered,short,4.0,4.0,1.0,1.0,1.0,1.0,47
20,1,0.6738748550415039,4.0,9.0,with distraction,filtered,short,4.0,4.0,1.0,1.0,1.0,1.0,48
20,1,0.8125228881835938,4.0,10.0,with distraction,filtered,short,4.0,4.0,1.0,1.0,1.0,1.0,49
20,1,0.6123528480529785,5.0,1.0,no distraction,none,long,4.0,4.0,1.0,1.0,1.0,1.0,50
20,1,0.8658041954040527,5.0,2.0,no distraction,none,long,4.0,4.0,1.0,1.0,1.0,1.0,51
20,1,0.7210538387298584,5.0,3.0,no distraction,none,long,4.0,4.0,1.0,1.0,1.0,1.0,52
20,1,0.6389260292053223,5.0,4.0,no distraction,none,long,4.0,4.0,1.0,1.0,1.0,1.0,53
20,1,0.743729829788208,5.0,5.0,no distraction,none,long,4.0,4.0,1.0,1.0,1.0,1.0,54
20,1,0.7896170616149902,5.0,6.0,no distraction,none,long,4.0,4.0,1.0,1.0,1.0,1.0,55
20,1,0.7182283401489258,5.0,7.0,no distraction,none,long,4.0,4.0,1.0,1.0,1.0,1.0,56
20,1,0.6600303649902344,5.0,8.0,no distraction,none,long,4.0,4.0,1.0,1.0,1.0,1.0,57
20,1,0.6705491542816162,5.0,9.0,no distraction,none,long,4.0,4.0,1.0,1.0,1.0,1.0,58
20,1,0.7737500667572021,5.0,10.0,no distraction,none,long,4.0,4.0,1.0,1.0,1.0,1.0,59
20,1,0.8070330619812012,6.0,1.0,with distraction,filtered,long,6.0,7.0,2.0,6.0,5.0,6.0,60
20,1,0.915168046951294,6.0,2.0,with distraction,filtered,long,6.0,7.0,2.0,6.0,5.0,6.0,61
20,1,1.0799472332000732,6.0,3.0,with distraction,filtered,long,6.0,7.0,2.0,6.0,5.0,6.0,62
20,1,0.9154508113861084,6.0,4.0,with distraction,filtered,long,6.0,7.0,2.0,6.0,5.0,6.0,63
20,1,0.8250799179077148,6.0,5.0,with distraction,filtered,long,6.0,7.0,2.0,6.0,5.0,6.0,64
20,1,0.8405880928039551,6.0,6.0,with distraction,filtered,long,6.0,7.0,2.0,6.0,5.0,6.0,65
20,1,1.0766546726226809,6.0,7.0,with distraction,filtered,long,6.0,7.0,2.0,6.0,5.0,6.0,66
20,1,0.838029146194458,6.0,8.0,with distraction,filtered,long,6.0,7.0,2.0,6.0,5.0,6.0,67
20,1,0.9457290172576904,6.0,9.0,with distraction,filtered,long,6.0,7.0,2.0,6.0,5.0,6.0,68
20,1,0.9422519207000732,6.0,10.0,with distraction,filtered,long,6.0,7.0,2.0,6.0,5.0,6.0,69
20,1,0.6729331016540527,7.0,1.0,no distraction,none,short,4.0,4.0,1.0,1.0,1.0,1.0,70
20,1,0.5851879119873047,7.0,2.0,no distraction,none,short,4.0,4.0,1.0,1.0,1.0,1.0,71
20,1,0.6331069469451904,7.0,3.0,no distraction,none,short,4.0,4.0,1.0,1.0,1.0,1.0,72
20,1,0.6421329975128174,7.0,4.0,no distraction,none,short,4.0,4.0,1.0,1.0,1.0,1.0,73
20,1,0.5106387138366699,7.0,5.0,no distraction,none,short,4.0,4.0,1.0,1.0,1.0,1.0,74
20,1,0.6000587940216064,7.0,6.0,no distraction,none,short,4.0,4.0,1.0,1.0,1.0,1.0,75
20,1,0.5783400535583496,7.0,7.0,no distraction,none,short,4.0,4.0,1.0,1.0,1.0,1.0,76
20,1,0.5289690494537354,7.0,8.0,no distraction,none,short,4.0,4.0,1.0,1.0,1.0,1.0,77
20,1,0.6839678287506104,7.0,9.0,no distraction,none,short,4.0,4.0,1.0,1.0,1.0,1.0,78
20,1,0.461712121963501,7.0,10.0,no distraction,none,short,4.0,4.0,1.0,1.0,1.0,1.0,79
20,1,0.601647138595581,8.0,1.0,no distraction,static,short,3.0,6.0,4.0,2.0,4.0,2.0,80
20,1,0.6548371315002441,8.0,2.0,no distraction,static,short,3.0,6.0,4.0,2.0,4.0,2.0,81
20,1,0.6182777881622314,8.0,3.0,no distraction,static,short,3.0,6.0,4.0,2.0,4.0,2.0,82
20,1,0.5809018611907959,8.0,4.0,no distraction,static,short,3.0,6.0,4.0,2.0,4.0,2.0,83
20,1,0.7363672256469727,8.0,5.0,no distraction,static,short,3.0,6.0,4.0,2.0,4.0,2.0,84
20,1,0.6769001483917236,8.0,6.0,no distraction,static,short,3.0,6.0,4.0,2.0,4.0,2.0,85
20,1,0.8690123558044434,8.0,7.0,no distraction,static,short,3.0,6.0,4.0,2.0,4.0,2.0,86
20,1,0.6648712158203125,8.0,8.0,no distraction,static,short,3.0,6.0,4.0,2.0,4.0,2.0,87
20,1,0.6245119571685791,8.0,9.0,no distraction,static,short,3.0,6.0,4.0,2.0,4.0,2.0,88
20,1,0.5497040748596191,8.0,10.0,no distraction,static,short,3.0,6.0,4.0,2.0,4.0,2.0,89
20,1,0.6880378723144531,9.0,1.0,no distraction,filtered,short,6.0,7.0,2.0,6.0,6.0,6.0,90
20,1,0.5936048030853271,9.0,2.0,no distraction,filtered,short,6.0,7.0,2.0,6.0,6.0,6.0,91
20,1,0.7037298679351807,9.0,3.0,no distraction,filtered,short,6.0,7.0,2.0,6.0,6.0,6.0,92
20,1,0.5792262554168701,9.0,4.0,no distraction,filtered,short,6.0,7.0,2.0,6.0,6.0,6.0,93
20,1,0.6451578140258789,9.0,5.0,no distraction,filtered,short,6.0,7.0,2.0,6.0,6.0,6.0,94
20,1,0.5997729301452637,9.0,6.0,no distraction,filtered,short,6.0,7.0,2.0,6.0,6.0,6.0,95
20,1,0.5461630821228027,9.0,7.0,no distraction,filtered,short,6.0,7.0,2.0,6.0,6.0,6.0,96
20,1,0.5558340549468994,9.0,8.0,no distraction,filtered,short,6.0,7.0,2.0,6.0,6.0,6.0,97
20,1,1.1330628395080566,9.0,9.0,no distraction,filtered,short,6.0,7.0,2.0,6.0,6.0,6.0,98
20,1,0.5284309387207031,9.0,10.0,no distraction,filtered,short,6.0,7.0,2.0,6.0,6.0,6.0,99
20,1,0.6588423252105713,10.0,1.0,no distraction,filtered,long,3.0,6.0,5.0,3.0,5.0,4.0,100
20,1,0.7881069183349609,10.0,2.0,no distraction,filtered,long,3.0,6.0,5.0,3.0,5.0,4.0,101
20,1,0.7918410301208496,10.0,3.0,no distraction,filtered,long,3.0,6.0,5.0,3.0,5.0,4.0,102
20,1,0.6821820735931396,10.0,4.0,no distraction,filtered,long,3.0,6.0,5.0,3.0,5.0,4.0,103
20,1,0.6145210266113281,10.0,5.0,no distraction,filtered,long,3.0,6.0,5.0,3.0,5.0,4.0,104
20,1,0.7767002582550049,10.0,6.0,no distraction,filtered,long,3.0,6.0,5.0,3.0,5.0,4.0,105
20,1,0.6808741092681885,10.0,7.0,no distraction,filtered,long,3.0,6.0,5.0,3.0,5.0,4.0,106
20,1,0.7010548114776611,10.0,8.0,no distraction,filtered,long,3.0,6.0,5.0,3.0,5.0,4.0,107
20,1,0.6623570919036865,10.0,9.0,no distraction,filtered,long,3.0,6.0,5.0,3.0,5.0,4.0,108
20,1,0.7268729209899902,10.0,10.0,no distraction,filtered,long,3.0,6.0,5.0,3.0,5.0,4.0,109
20,1,0.8527820110321045,11.0,1.0,with distraction,static,short,2.0,3.0,7.0,2.0,6.0,1.0,110
20,1,0.8162081241607666,11.0,2.0,with distraction,static,short,2.0,3.0,7.0,2.0,6.0,1.0,111
20,1,1.0969250202178955,11.0,3.0,with distraction,static,short,2.0,3.0,7.0,2.0,6.0,1.0,112
20,1,0.8378479480743408,11.0,4.0,with distraction,static,short,2.0,3.0,7.0,2.0,6.0,1.0,113
20,1,0.8115251064300537,11.0,5.0,with distraction,static,short,2.0,3.0,7.0,2.0,6.0,1.0,114
20,1,0.7892999649047852,11.0,6.0,with distraction,static,short,2.0,3.0,7.0,2.0,6.0,1.0,115
20,1,0.8475120067596436,11.0,7.0,with distraction,static,short,2.0,3.0,7.0,2.0,6.0,1.0,116
20,1,1.0522513389587402,11.0,8.0,with distraction,static,short,2.0,3.0,7.0,2.0,6.0,1.0,117
20,1,1.100044012069702,11.0,9.0,with distraction,static,short,2.0,3.0,7.0,2.0,6.0,1.0,118
20,1,1.358608961105347,11.0,10.0,with distraction,static,short,2.0,3.0,7.0,2.0,6.0,1.0,119
13,1,0.6870079040527344,0.0,1.0,with distraction,static,short,6.0,4.0,1.0,4.0,1.0,2.0,1
13,1,0.8095691204071045,0.0,2.0,with distraction,static,short,6.0,4.0,1.0,4.0,1.0,2.0,2
13,1,0.8152120113372803,0.0,3.0,with distraction,static,short,6.0,4.0,1.0,4.0,1.0,2.0,3
13,1,0.8476548194885254,0.0,4.0,with distraction,static,short,6.0,4.0,1.0,4.0,1.0,2.0,4
13,1,0.6818029880523682,0.0,5.0,with distraction,static,short,6.0,4.0,1.0,4.0,1.0,2.0,5
13,1,0.7820031642913818,0.0,6.0,with distraction,static,short,6.0,4.0,1.0,4.0,1.0,2.0,6
13,1,0.7837450504302979,0.0,7.0,with distraction,static,short,6.0,4.0,1.0,4.0,1.0,2.0,7
13,1,0.782609224319458,0.0,8.0,with distraction,static,short,6.0,4.0,1.0,4.0,1.0,2.0,8
13,1,0.6717212200164795,0.0,9.0,with distraction,static,short,6.0,4.0,1.0,4.0,1.0,2.0,9
13,1,0.6962158679962158,0.0,10.0,with distraction,static,short,6.0,4.0,1.0,4.0,1.0,2.0,10
13,1,1.0133590698242188,1.0,1.0,no distraction,none,long,4.0,4.0,1.0,1.0,1.0,1.0,11
13,1,1.0230059623718262,1.0,2.0,no distraction,none,long,4.0,4.0,1.0,1.0,1.0,1.0,12
13,1,1.0519449710845947,1.0,3.0,no distraction,none,long,4.0,4.0,1.0,1.0,1.0,1.0,13
13,1,0.8152329921722412,1.0,4.0,no distraction,none,long,4.0,4.0,1.0,1.0,1.0,1.0,14
13,1,0.7653927803039551,1.0,5.0,no distraction,none,long,4.0,4.0,1.0,1.0,1.0,1.0,15
13,1,0.9173717498779296,1.0,6.0,no distraction,none,long,4.0,4.0,1.0,1.0,1.0,1.0,16
13,1,0.8038761615753174,1.0,7.0,no distraction,none,long,4.0,4.0,1.0,1.0,1.0,1.0,17
13,1,0.7187302112579346,1.0,8.0,no distraction,none,long,4.0,4.0,1.0,1.0,1.0,1.0,18
13,1,0.8131062984466553,1.0,9.0,no distraction,none,long,4.0,4.0,1.0,1.0,1.0,1.0,19
13,1,0.6456329822540283,1.0,10.0,no distraction,none,long,4.0,4.0,1.0,1.0,1.0,1.0,20
13,1,0.827808141708374,2.0,1.0,with distraction,static,long,6.0,3.0,2.0,5.0,1.0,3.0,21
13,1,1.2168970108032229,2.0,2.0,with distraction,static,long,6.0,3.0,2.0,5.0,1.0,3.0,22
13,0,1.1943190097808838,2.0,3.0,with distraction,static,long,6.0,3.0,2.0,5.0,1.0,3.0,23
13,1,0.8541710376739502,2.0,4.0,with distraction,static,long,6.0,3.0,2.0,5.0,1.0,3.0,24
13,1,0.8228237628936768,2.0,5.0,with distraction,static,long,6.0,3.0,2.0,5.0,1.0,3.0,25
13,1,0.9569752216339112,2.0,6.0,with distraction,static,long,6.0,3.0,2.0,5.0,1.0,3.0,26
13,1,0.8195979595184326,2.0,7.0,with distraction,static,long,6.0,3.0,2.0,5.0,1.0,3.0,27
13,1,1.366365909576416,2.0,8.0,with distraction,static,long,6.0,3.0,2.0,5.0,1.0,3.0,28
13,1,0.7912969589233398,2.0,9.0,with distraction,static,long,6.0,3.0,2.0,5.0,1.0,3.0,29
13,1,0.9956779479980468,2.0,10.0,with distraction,static,long,6.0,3.0,2.0,5.0,1.0,3.0,30
13,1,0.9663519859313964,3.0,1.0,no distraction,none,short,4.0,4.0,1.0,1.0,1.0,1.0,31
13,1,0.7733659744262695,3.0,2.0,no distraction,none,short,4.0,4.0,1.0,1.0,1.0,1.0,32
13,0,0.5994670391082764,3.0,3.0,no distraction,none,short,4.0,4.0,1.0,1.0,1.0,1.0,33
13,1,0.8288438320159912,3.0,4.0,no distraction,none,short,4.0,4.0,1.0,1.0,1.0,1.0,34
13,1,0.567802906036377,3.0,5.0,no distraction,none,short,4.0,4.0,1.0,1.0,1.0,1.0,35
13,1,0.7597649097442627,3.0,6.0,no distraction,none,short,4.0,4.0,1.0,1.0,1.0,1.0,36
13,1,0.6162049770355225,3.0,7.0,no distraction,none,short,4.0,4.0,1.0,1.0,1.0,1.0,37
13,1,0.5573289394378662,3.0,8.0,no distraction,none,short,4.0,4.0,1.0,1.0,1.0,1.0,38
13,1,0.9968430995941162,3.0,9.0,no distraction,none,short,4.0,4.0,1.0,1.0,1.0,1.0,39
13,1,0.5988061428070068,3.0,10.0,no distraction,none,short,4.0,4.0,1.0,1.0,1.0,1.0,40
13,1,1.089587926864624,4.0,1.0,with distraction,filtered,short,6.0,3.0,2.0,2.0,1.0,2.0,41
13,1,0.817511796951294,4.0,2.0,with distraction,filtered,short,6.0,3.0,2.0,2.0,1.0,2.0,42
13,1,0.9371910095214844,4.0,3.0,with distraction,filtered,short,6.0,3.0,2.0,2.0,1.0,2.0,43
13,1,0.968609094619751,4.0,4.0,with distraction,filtered,short,6.0,3.0,2.0,2.0,1.0,2.0,44
13,1,0.8109297752380371,4.0,5.0,with distraction,filtered,short,6.0,3.0,2.0,2.0,1.0,2.0,45
13,1,0.9076178073883056,4.0,6.0,with distraction,filtered,short,6.0,3.0,2.0,2.0,1.0,2.0,46
13,1,0.8364779949188232,4.0,7.0,with distraction,filtered,short,6.0,3.0,2.0,2.0,1.0,2.0,47
13,1,0.943181037902832,4.0,8.0,with distraction,filtered,short,6.0,3.0,2.0,2.0,1.0,2.0,48
13,1,0.8476650714874268,4.0,9.0,with distraction,filtered,short,6.0,3.0,2.0,2.0,1.0,2.0,49
13,1,0.8343160152435303,4.0,10.0,with distraction,filtered,short,6.0,3.0,2.0,2.0,1.0,2.0,50
13,1,1.1256282329559326,5.0,1.0,with distraction,none,long,2.0,2.0,1.0,1.0,1.0,1.0,51
13,1,0.8114290237426758,5.0,2.0,with distraction,none,long,2.0,2.0,1.0,1.0,1.0,1.0,52
13,1,0.853081226348877,5.0,3.0,with distraction,none,long,2.0,2.0,1.0,1.0,1.0,1.0,53
13,1,0.938621997833252,5.0,4.0,with distraction,none,long,2.0,2.0,1.0,1.0,1.0,1.0,54
13,0,0.9433660507202148,5.0,5.0,with distraction,none,long,2.0,2.0,1.0,1.0,1.0,1.0,55
13,1,0.940802812576294,5.0,6.0,with distraction,none,long,2.0,2.0,1.0,1.0,1.0,1.0,56
13,1,0.9377892017364502,5.0,8.0,with distraction,none,long,2.0,2.0,1.0,1.0,1.0,1.0,57
13,1,1.070997953414917,5.0,9.0,with distraction,none,long,2.0,2.0,1.0,1.0,1.0,1.0,58
13,1,1.185840129852295,5.0,10.0,with distraction,none,long,2.0,2.0,1.0,1.0,1.0,1.0,59
13,1,0.9559028148651124,6.0,1.0,no distraction,static,short,6.0,2.0,1.0,3.0,1.0,3.0,60
13,1,0.6535518169403076,6.0,2.0,no distraction,static,short,6.0,2.0,1.0,3.0,1.0,3.0,61
13,1,1.0187711715698242,6.0,3.0,no distraction,static,short,6.0,2.0,1.0,3.0,1.0,3.0,62
13,1,0.7013092041015625,6.0,4.0,no distraction,static,short,6.0,2.0,1.0,3.0,1.0,3.0,63
13,1,0.8333678245544434,6.0,5.0,no distraction,static,short,6.0,2.0,1.0,3.0,1.0,3.0,64
13,1,0.654911994934082,6.0,6.0,no distraction,static,short,6.0,2.0,1.0,3.0,1.0,3.0,65
13,1,0.6157479286193848,6.0,7.0,no distraction,static,short,6.0,2.0,1.0,3.0,1.0,3.0,66
13,1,0.6928660869598389,6.0,8.0,no distraction,static,short,6.0,2.0,1.0,3.0,1.0,3.0,67
13,1,0.824915885925293,6.0,9.0,no distraction,static,short,6.0,2.0,1.0,3.0,1.0,3.0,68
13,1,0.7145242691040039,6.0,10.0,no distraction,static,short,6.0,2.0,1.0,3.0,1.0,3.0,69
13,1,0.800541877746582,7.0,1.0,no distraction,static,long,1.0,5.0,3.0,2.0,2.0,1.0,70
13,1,0.8215548992156982,7.0,2.0,no distraction,static,long,1.0,5.0,3.0,2.0,2.0,1.0,71
13,1,0.7281701564788818,7.0,3.0,no distraction,static,long,1.0,5.0,3.0,2.0,2.0,1.0,72
13,1,1.020777940750122,7.0,4.0,no distraction,static,long,1.0,5.0,3.0,2.0,2.0,1.0,73
13,1,0.8974947929382324,7.0,5.0,no distraction,static,long,1.0,5.0,3.0,2.0,2.0,1.0,74
13,1,0.7417480945587158,7.0,6.0,no distraction,static,long,1.0,5.0,3.0,2.0,2.0,1.0,75
13,1,0.8062160015106201,7.0,7.0,no distraction,static,long,1.0,5.0,3.0,2.0,2.0,1.0,76
13,1,0.8987841606140137,7.0,8.0,no distraction,static,long,1.0,5.0,3.0,2.0,2.0,1.0,77
13,1,0.9109950065612792,7.0,9.0,no distraction,static,long,1.0,5.0,3.0,2.0,2.0,1.0,78
13,1,0.8204281330108643,7.0,10.0,no distraction,static,long,1.0,5.0,3.0,2.0,2.0,1.0,79
13,1,1.1770970821380615,8.0,2.0,with distraction,filtered,long,1.0,4.0,3.0,1.0,1.0,1.0,80
13,1,0.971893310546875,8.0,3.0,with distraction,filtered,long,1.0,4.0,3.0,1.0,1.0,1.0,81
13,1,0.9444007873535156,8.0,5.0,with distraction,filtered,long,1.0,4.0,3.0,1.0,1.0,1.0,82
13,1,1.070082187652588,8.0,7.0,with distraction,filtered,long,1.0,4.0,3.0,1.0,1.0,1.0,83
13,1,1.0568320751190186,8.0,8.0,with distraction,filtered,long,1.0,4.0,3.0,1.0,1.0,1.0,84
13,1,0.9436519145965576,8.0,9.0,with distraction,filtered,long,1.0,4.0,3.0,1.0,1.0,1.0,85
13,1,0.928231954574585,8.0,10.0,with distraction,filtered,long,1.0,4.0,3.0,1.0,1.0,1.0,86
13,1,1.0389800071716309,9.0,1.0,with distraction,none,short,6.0,1.0,2.0,1.0,1.0,1.0,87
13,1,0.672515869140625,9.0,2.0,with distraction,none,short,6.0,1.0,2.0,1.0,1.0,1.0,88
13,1,0.5670919418334961,9.0,3.0,with distraction,none,short,6.0,1.0,2.0,1.0,1.0,1.0,89
13,1,0.8389480113983154,9.0,4.0,with distraction,none,short,6.0,1.0,2.0,1.0,1.0,1.0,90
13,1,0.9430999755859376,9.0,5.0,with distraction,none,short,6.0,1.0,2.0,1.0,1.0,1.0,91
13,1,1.0711610317230225,9.0,6.0,with distraction,none,short,6.0,1.0,2.0,1.0,1.0,1.0,92
13,1,0.8058779239654541,9.0,7.0,with distraction,none,short,6.0,1.0,2.0,1.0,1.0,1.0,93
13,1,0.6755580902099609,9.0,8.0,with distraction,none,short,6.0,1.0,2.0,1.0,1.0,1.0,94
13,1,1.449838161468506,9.0,9.0,with distraction,none,short,6.0,1.0,2.0,1.0,1.0,1.0,95
13,0,0.7759847640991211,9.0,10.0,with distraction,none,short,6.0,1.0,2.0,1.0,1.0,1.0,96
13,1,0.9499120712280272,10.0,1.0,no distraction,filtered,short,5.0,6.0,5.0,1.0,1.0,1.0,97
13,1,0.7237167358398438,10.0,2.0,no distraction,filtered,short,5.0,6.0,5.0,1.0,1.0,1.0,98
13,1,0.6390511989593506,10.0,3.0,no distraction,filtered,short,5.0,6.0,5.0,1.0,1.0,1.0,99
13,1,0.7220971584320068,10.0,4.0,no distraction,filtered,short,5.0,6.0,5.0,1.0,1.0,1.0,100
13,1,0.7824859619140625,10.0,6.0,no distraction,filtered,short,5.0,6.0,5.0,1.0,1.0,1.0,101
13,1,0.758430004119873,10.0,9.0,no distraction,filtered,short,5.0,6.0,5.0,1.0,1.0,1.0,102
13,1,0.7603762149810791,11.0,1.0,no distraction,filtered,long,5.0,6.0,4.0,1.0,1.0,1.0,103
13,1,1.059601068496704,11.0,2.0,no distraction,filtered,long,5.0,6.0,4.0,1.0,1.0,1.0,104
13,1,0.7577717304229736,11.0,3.0,no distraction,filtered,long,5.0,6.0,4.0,1.0,1.0,1.0,105
13,1,0.7332808971405029,11.0,4.0,no distraction,filtered,long,5.0,6.0,4.0,1.0,1.0,1.0,106
13,1,0.8423609733581543,11.0,5.0,no distraction,filtered,long,5.0,6.0,4.0,1.0,1.0,1.0,107
13,1,0.7247200012207031,11.0,6.0,no distraction,filtered,long,5.0,6.0,4.0,1.0,1.0,1.0,108
13,1,0.720005989074707,11.0,7.0,no distraction,filtered,long,5.0,6.0,4.0,1.0,1.0,1.0,109
13,1,1.385702133178711,11.0,8.0,no distraction,filtered,long,5.0,6.0,4.0,1.0,1.0,1.0,110
13,1,1.0613369941711426,11.0,9.0,no distraction,filtered,long,5.0,6.0,4.0,1.0,1.0,1.0,111
13,1,1.1415739059448242,11.0,10.0,no distraction,filtered,long,5.0,6.0,4.0,1.0,1.0,1.0,112
19,1,0.7724099159240723,0.0,1.0,no distraction,filtered,short,5.0,5.0,2.0,4.0,3.0,4.0,1
19,1,0.6300568580627441,0.0,2.0,no distraction,filtered,short,5.0,5.0,2.0,4.0,3.0,4.0,2
19,1,0.5742571353912354,0.0,3.0,no distraction,filtered,short,5.0,5.0,2.0,4.0,3.0,4.0,3
19,0,0.6842381954193115,0.0,4.0,no distraction,filtered,short,5.0,5.0,2.0,4.0,3.0,4.0,4
19,1,0.6476469039916992,0.0,5.0,no distraction,filtered,short,5.0,5.0,2.0,4.0,3.0,4.0,5
19,1,0.7071199417114258,0.0,6.0,no distraction,filtered,short,5.0,5.0,2.0,4.0,3.0,4.0,6
19,1,0.6610679626464844,0.0,7.0,no distraction,filtered,short,5.0,5.0,2.0,4.0,3.0,4.0,7
19,1,0.6678450107574463,0.0,8.0,no distraction,filtered,short,5.0,5.0,2.0,4.0,3.0,4.0,8
19,1,0.6081700325012207,0.0,9.0,no distraction,filtered,short,5.0,5.0,2.0,4.0,3.0,4.0,9
19,1,0.6888649463653564,0.0,10.0,no distraction,filtered,short,5.0,5.0,2.0,4.0,3.0,4.0,10
19,1,0.8458089828491211,1.0,1.0,no distraction,none,long,4.0,4.0,1.0,1.0,1.0,1.0,11
19,1,0.9369738101959229,1.0,2.0,no distraction,none,long,4.0,4.0,1.0,1.0,1.0,1.0,12
19,1,1.314476728439331,1.0,3.0,no distraction,none,long,4.0,4.0,1.0,1.0,1.0,1.0,13
19,1,1.0898709297180176,1.0,4.0,no distraction,none,long,4.0,4.0,1.0,1.0,1.0,1.0,14
19,1,0.803631067276001,1.0,5.0,no distraction,none,long,4.0,4.0,1.0,1.0,1.0,1.0,15
19,1,0.8670132160186768,1.0,6.0,no distraction,none,long,4.0,4.0,1.0,1.0,1.0,1.0,16
19,1,0.9910521507263184,1.0,7.0,no distraction,none,long,4.0,4.0,1.0,1.0,1.0,1.0,17
19,1,0.764517068862915,1.0,8.0,no distraction,none,long,4.0,4.0,1.0,1.0,1.0,1.0,18
19,1,1.2745521068572998,1.0,9.0,no distraction,none,long,4.0,4.0,1.0,1.0,1.0,1.0,19
19,1,1.099540948867798,1.0,10.0,no distraction,none,long,4.0,4.0,1.0,1.0,1.0,1.0,20
19,1,1.1780648231506348,2.0,1.0,no distraction,none,short,4.0,4.0,1.0,1.0,1.0,1.0,21
19,1,0.6299009323120117,2.0,2.0,no distraction,none,short,4.0,4.0,1.0,1.0,1.0,1.0,22
19,1,0.7665550708770752,2.0,3.0,no distraction,none,short,4.0,4.0,1.0,1.0,1.0,1.0,23
19,1,0.6287591457366943,2.0,4.0,no distraction,none,short,4.0,4.0,1.0,1.0,1.0,1.0,24
19,1,0.5970809459686279,2.0,5.0,no distraction,none,short,4.0,4.0,1.0,1.0,1.0,1.0,25
19,1,0.5242428779602051,2.0,6.0,no distraction,none,short,4.0,4.0,1.0,1.0,1.0,1.0,26
19,1,0.613429069519043,2.0,7.0,no distraction,none,short,4.0,4.0,1.0,1.0,1.0,1.0,27
19,1,0.7559478282928467,2.0,8.0,no distraction,none,short,4.0,4.0,1.0,1.0,1.0,1.0,28
19,1,0.5477511882781982,2.0,9.0,no distraction,none,short,4.0,4.0,1.0,1.0,1.0,1.0,29
19,1,0.6973681449890137,2.0,10.0,no distraction,none,short,4.0,4.0,1.0,1.0,1.0,1.0,30
19,1,1.1143898963928225,3.0,1.0,no distraction,filtered,long,3.0,3.0,2.0,3.0,3.0,5.0,31
19,1,0.84340500831604,3.0,2.0,no distraction,filtered,long,3.0,3.0,2.0,3.0,3.0,5.0,32
19,1,0.7869350910186768,3.0,3.0,no distraction,filtered,long,3.0,3.0,2.0,3.0,3.0,5.0,33
19,1,1.112382888793945,3.0,4.0,no distraction,filtered,long,3.0,3.0,2.0,3.0,3.0,5.0,34
19,1,1.2211847305297852,3.0,5.0,no distraction,filtered,long,3.0,3.0,2.0,3.0,3.0,5.0,35
19,1,1.280301809310913,3.0,6.0,no distraction,filtered,long,3.0,3.0,2.0,3.0,3.0,5.0,36
19,1,0.8984670639038086,3.0,7.0,no distraction,filtered,long,3.0,3.0,2.0,3.0,3.0,5.0,37
19,1,0.8046011924743652,3.0,8.0,no distraction,filtered,long,3.0,3.0,2.0,3.0,3.0,5.0,38
19,1,0.922309160232544,3.0,9.0,no distraction,filtered,long,3.0,3.0,2.0,3.0,3.0,5.0,39
19,1,0.7737200260162354,3.0,10.0,no distraction,filtered,long,3.0,3.0,2.0,3.0,3.0,5.0,40
19,1,0.8324332237243652,4.0,1.0,no distraction,static,long,2.0,3.0,2.0,4.0,2.0,4.0,41
19,1,0.7670469284057617,4.0,2.0,no distraction,static,long,2.0,3.0,2.0,4.0,2.0,4.0,42
19,1,0.9340929985046388,4.0,3.0,no distraction,static,long,2.0,3.0,2.0,4.0,2.0,4.0,43
19,1,0.7298219203948975,4.0,4.0,no distraction,static,long,2.0,3.0,2.0,4.0,2.0,4.0,44
19,1,1.134047031402588,4.0,5.0,no distraction,static,long,2.0,3.0,2.0,4.0,2.0,4.0,45
19,1,1.062124729156494,4.0,6.0,no distraction,static,long,2.0,3.0,2.0,4.0,2.0,4.0,46
19,1,0.6408710479736328,4.0,7.0,no distraction,static,long,2.0,3.0,2.0,4.0,2.0,4.0,47
19,1,0.6555662155151367,4.0,8.0,no distraction,static,long,2.0,3.0,2.0,4.0,2.0,4.0,48
19,1,0.9601967334747314,4.0,9.0,no distraction,static,long,2.0,3.0,2.0,4.0,2.0,4.0,49
19,1,0.9173011779785156,5.0,1.0,with distraction,filtered,long,5.0,5.0,3.0,4.0,3.0,3.0,50
19,1,1.2229421138763428,5.0,2.0,with distraction,filtered,long,5.0,5.0,3.0,4.0,3.0,3.0,51
19,1,0.952789068222046,5.0,3.0,with distraction,filtered,long,5.0,5.0,3.0,4.0,3.0,3.0,52
19,1,1.2164747714996338,5.0,4.0,with distraction,filtered,long,5.0,5.0,3.0,4.0,3.0,3.0,53
19,1,0.8533639907836914,5.0,5.0,with distraction,filtered,long,5.0,5.0,3.0,4.0,3.0,3.0,54
19,1,1.3490948677062988,5.0,7.0,with distraction,filtered,long,5.0,5.0,3.0,4.0,3.0,3.0,55
19,1,0.9160020351409912,5.0,8.0,with distraction,filtered,long,5.0,5.0,3.0,4.0,3.0,3.0,56
19,1,0.7763481140136719,5.0,9.0,with distraction,filtered,long,5.0,5.0,3.0,4.0,3.0,3.0,57
19,1,0.7531857490539551,6.0,1.0,no distraction,static,short,6.0,6.0,1.0,2.0,3.0,3.0,58
19,1,0.8858709335327148,6.0,2.0,no distraction,static,short,6.0,6.0,1.0,2.0,3.0,3.0,59
19,1,0.6825470924377441,6.0,3.0,no distraction,static,short,6.0,6.0,1.0,2.0,3.0,3.0,60
19,1,0.5253682136535645,6.0,4.0,no distraction,static,short,6.0,6.0,1.0,2.0,3.0,3.0,61
19,1,0.7269930839538574,6.0,5.0,no distraction,static,short,6.0,6.0,1.0,2.0,3.0,3.0,62
19,1,0.6810150146484375,6.0,6.0,no distraction,static,short,6.0,6.0,1.0,2.0,3.0,3.0,63
19,1,0.6539878845214844,6.0,7.0,no distraction,static,short,6.0,6.0,1.0,2.0,3.0,3.0,64
19,1,0.9522747993469238,6.0,8.0,no distraction,static,short,6.0,6.0,1.0,2.0,3.0,3.0,65
19,1,0.6406290531158447,6.0,9.0,no distraction,static,short,6.0,6.0,1.0,2.0,3.0,3.0,66
19,1,0.7971041202545166,6.0,10.0,no distraction,static,short,6.0,6.0,1.0,2.0,3.0,3.0,67
19,1,0.9635770320892334,7.0,1.0,with distraction,static,short,6.0,5.0,1.0,1.0,2.0,3.0,68
19,1,0.8137593269348145,7.0,2.0,with distraction,static,short,6.0,5.0,1.0,1.0,2.0,3.0,69
19,1,0.806859016418457,7.0,3.0,with distraction,static,short,6.0,5.0,1.0,1.0,2.0,3.0,70
19,1,0.677501916885376,7.0,4.0,with distraction,static,short,6.0,5.0,1.0,1.0,2.0,3.0,71
19,1,0.728546142578125,7.0,5.0,with distraction,static,short,6.0,5.0,1.0,1.0,2.0,3.0,72
19,1,0.9545667171478271,7.0,6.0,with distraction,static,short,6.0,5.0,1.0,1.0,2.0,3.0,73
19,0,0.7791228294372559,7.0,7.0,with distraction,static,short,6.0,5.0,1.0,1.0,2.0,3.0,74
19,1,0.8297131061553955,7.0,8.0,with distraction,static,short,6.0,5.0,1.0,1.0,2.0,3.0,75
19,1,0.8269269466400146,7.0,9.0,with distraction,static,short,6.0,5.0,1.0,1.0,2.0,3.0,76
19,1,1.081540822982788,7.0,10.0,with distraction,static,short,6.0,5.0,1.0,1.0,2.0,3.0,77
19,1,0.713568925857544,8.0,1.0,with distraction,filtered,short,7.0,6.0,1.0,2.0,1.0,2.0,78
19,1,0.7779099941253662,8.0,2.0,with distraction,filtered,short,7.0,6.0,1.0,2.0,1.0,2.0,79
19,1,0.9710969924926758,8.0,3.0,with distraction,filtered,short,7.0,6.0,1.0,2.0,1.0,2.0,80
19,1,1.1979649066925049,8.0,4.0,with distraction,filtered,short,7.0,6.0,1.0,2.0,1.0,2.0,81
19,1,0.955111026763916,8.0,5.0,with distraction,filtered,short,7.0,6.0,1.0,2.0,1.0,2.0,82
19,1,0.9346020221710204,8.0,6.0,with distraction,filtered,short,7.0,6.0,1.0,2.0,1.0,2.0,83
19,1,0.933934211730957,8.0,7.0,with distraction,filtered,short,7.0,6.0,1.0,2.0,1.0,2.0,84
19,1,0.9054100513458252,8.0,8.0,with distraction,filtered,short,7.0,6.0,1.0,2.0,1.0,2.0,85
19,1,0.8056159019470215,8.0,9.0,with distraction,filtered,short,7.0,6.0,1.0,2.0,1.0,2.0,86
19,1,0.9406590461730956,8.0,10.0,with distraction,filtered,short,7.0,6.0,1.0,2.0,1.0,2.0,87
19,1,0.9628794193267822,9.0,1.0,with distraction,static,long,3.0,4.0,1.0,3.0,2.0,3.0,88
19,1,0.9152588844299316,9.0,2.0,with distraction,static,long,3.0,4.0,1.0,3.0,2.0,3.0,89
19,1,1.0815870761871338,9.0,3.0,with distraction,static,long,3.0,4.0,1.0,3.0,2.0,3.0,90
19,1,1.1086859703063965,9.0,4.0,with distraction,static,long,3.0,4.0,1.0,3.0,2.0,3.0,91
19,1,1.1921861171722412,9.0,5.0,with distraction,static,long,3.0,4.0,1.0,3.0,2.0,3.0,92
19,1,1.1162259578704834,9.0,6.0,with distraction,static,long,3.0,4.0,1.0,3.0,2.0,3.0,93
19,1,1.0432941913604736,9.0,7.0,with distraction,static,long,3.0,4.0,1.0,3.0,2.0,3.0,94
19,1,1.218012809753418,9.0,8.0,with distraction,static,long,3.0,4.0,1.0,3.0,2.0,3.0,95
